traj,px,py,pz,vx,vy,vz,ax,ay,az,roll,pitch,yaw
0,-1.924,1.053,0.579,-0.128,-0.133,0.018,0.406,0.77,-0.215,-0.071,-0.034,-0.018
0,-1.924,1.053,0.579,-0.123,-0.123,0.016,0.359,0.805,-0.203,-0.067,-0.03,-0.017
0,-1.925,1.052,0.579,-0.118,-0.114,0.014,0.293,0.723,-0.162,-0.065,-0.027,-0.017
0,-1.926,1.051,0.578,-0.113,-0.105,0.012,0.237,0.691,-0.172,-0.062,-0.024,-0.016
0,-1.926,1.051,0.578,-0.107,-0.093,0.009,0.233,0.661,-0.136,-0.061,-0.02,-0.016
0,-1.926,1.051,0.578,-0.103,-0.085,0.007,0.257,0.641,-0.098,-0.057,-0.016,-0.016
0,-1.926,1.051,0.578,-0.1,-0.077,0.006,0.219,0.621,-0.064,-0.054,-0.014,-0.016
0,-1.926,1.051,0.578,-0.097,-0.07,0.005,0.192,0.553,-0.076,-0.05,-0.011,-0.016
0,-1.927,1.051,0.578,-0.094,-0.063,0.004,0.138,0.472,-0.057,-0.046,-0.009,-0.016
0,-1.927,1.051,0.578,-0.088,-0.055,0.002,0.127,0.414,-0.057,-0.042,-0.007,-0.016
0,-1.927,1.051,0.577,-0.085,-0.049,0.001,0.12,0.457,-0.055,-0.038,-0.005,-0.016
0,-1.927,1.052,0.577,-0.083,-0.043,-0.0,0.07,0.452,-0.034,-0.035,-0.004,-0.016
0,-1.928,1.052,0.577,-0.081,-0.038,-0.001,0.012,0.365,-0.013,-0.031,-0.002,-0.016
0,-1.928,1.052,0.577,-0.078,-0.032,-0.002,-0.002,0.333,-0.027,-0.028,0.0,-0.016
0,-1.928,1.053,0.576,-0.075,-0.025,-0.003,0.026,0.301,-0.016,-0.025,0.002,-0.016
0,-1.928,1.053,0.576,-0.073,-0.02,-0.004,0.001,0.273,0.012,-0.021,0.005,-0.017
0,-1.928,1.053,0.576,-0.072,-0.016,-0.005,-0.056,0.247,0.035,-0.019,0.007,-0.017
0,-1.929,1.054,0.576,-0.071,-0.011,-0.005,-0.049,0.202,-0.004,-0.016,0.009,-0.018
0,-1.929,1.054,0.575,-0.07,-0.007,-0.006,-0.056,0.148,0.021,-0.013,0.011,-0.019
0,-1.929,1.055,0.575,-0.069,-0.002,-0.007,-0.12,0.101,-0.014,-0.01,0.014,-0.019
0,-1.929,1.055,0.575,-0.068,0.001,-0.008,-0.108,0.126,0.007,-0.006,0.016,-0.02
0,-1.929,1.056,0.575,-0.068,0.003,-0.008,-0.126,0.106,-0.011,-0.002,0.018,-0.021
0,-1.929,1.056,0.575,-0.069,0.005,-0.009,-0.201,0.063,0.008,0.002,0.02,-0.022
0,-1.93,1.057,0.574,-0.068,0.007,-0.01,-0.266,0.025,0.01,0.006,0.022,-0.022
0,-1.93,1.057,0.574,-0.068,0.007,-0.011,-0.259,0.015,0.023,0.01,0.023,-0.023
0,-1.93,1.058,0.574,-0.069,0.008,-0.011,-0.243,-0.059,0.039,0.013,0.024,-0.024
0,-1.931,1.058,0.574,-0.07,0.008,-0.011,-0.205,-0.089,0.058,0.016,0.025,-0.025
0,-1.931,1.058,0.573,-0.071,0.008,-0.011,-0.207,-0.154,0.062,0.019,0.025,-0.025
0,-1.931,1.059,0.573,-0.072,0.008,-0.011,-0.201,-0.199,0.058,0.022,0.025,-0.026
0,-1.931,1.06,0.573,-0.072,0.01,-0.012,-0.187,-0.213,0.03,0.025,0.025,-0.027
0,-1.932,1.06,0.572,-0.073,0.009,-0.012,-0.198,-0.169,0.034,0.027,0.025,-0.028
0,-1.932,1.061,0.572,-0.075,0.008,-0.013,-0.224,-0.249,0.027,0.031,0.024,-0.029
0,-1.933,1.061,0.572,-0.076,0.007,-0.013,-0.237,-0.312,0.053,0.034,0.024,-0.03
0,-1.933,1.062,0.572,-0.076,0.007,-0.014,-0.259,-0.307,0.044,0.036,0.024,-0.031
0,-1.933,1.062,0.572,-0.078,0.005,-0.014,-0.251,-0.31,0.054,0.039,0.024,-0.032
0,-1.933,1.062,0.571,-0.079,0.002,-0.014,-0.196,-0.356,0.092,0.042,0.023,-0.034
0,-1.934,1.062,0.571,-0.08,0.0,-0.014,-0.196,-0.435,0.107,0.044,0.022,-0.034
0,-1.935,1.063,0.571,-0.082,-0.003,-0.013,-0.174,-0.496,0.063,0.048,0.021,-0.036
0,-1.935,1.063,0.571,-0.082,-0.005,-0.014,-0.163,-0.522,0.044,0.051,0.019,-0.037
0,-1.935,1.063,0.571,-0.083,-0.008,-0.014,-0.147,-0.483,0.082,0.055,0.017,-0.038
0,-1.935,1.063,0.571,-0.084,-0.013,-0.014,-0.133,-0.493,0.068,0.059,0.015,-0.039
0,-1.936,1.063,0.57,-0.084,-0.017,-0.013,-0.133,-0.571,0.068,0.062,0.012,-0.04
0,-1.936,1.064,0.57,-0.084,-0.022,-0.013,-0.104,-0.567,0.053,0.066,0.01,-0.041
0,-1.937,1.064,0.57,-0.085,-0.028,-0.013,-0.072,-0.62,0.067,0.069,0.007,-0.042
0,-1.937,1.063,0.57,-0.083,-0.033,-0.013,-0.051,-0.652,0.096,0.072,0.005,-0.043
0,-1.938,1.063,0.57,-0.083,-0.04,-0.013,-0.046,-0.71,0.1,0.075,0.002,-0.044
0,-1.938,1.063,0.57,-0.082,-0.046,-0.012,0.009,-0.731,0.097,0.076,-0.001,-0.045
0,-1.939,1.062,0.57,-0.081,-0.052,-0.012,0.062,-0.754,0.106,0.079,-0.005,-0.046
0,-1.939,1.062,0.569,-0.079,-0.058,-0.011,0.087,-0.736,0.073,0.081,-0.01,-0.047
0,-1.939,1.062,0.569,-0.077,-0.066,-0.011,0.088,-0.782,0.046,0.085,-0.014,-0.048
0,-1.94,1.061,0.569,-0.075,-0.073,-0.011,0.124,-0.804,0.057,0.088,-0.018,-0.049
0,-1.94,1.061,0.569,-0.072,-0.082,-0.01,0.224,-0.837,0.068,0.091,-0.022,-0.05
0,-1.94,1.06,0.569,-0.07,-0.09,-0.01,0.285,-0.855,0.059,0.093,-0.026,-0.051
0,-1.941,1.059,0.569,-0.066,-0.099,-0.01,0.284,-0.904,0.044,0.095,-0.03,-0.052
0,-1.941,1.058,0.569,-0.062,-0.108,-0.01,0.325,-0.94,0.048,0.097,-0.034,-0.053
0,-1.941,1.057,0.569,-0.058,-0.117,-0.009,0.371,-0.915,0.091,0.099,-0.037,-0.054
0,-1.941,1.056,0.569,-0.054,-0.126,-0.008,0.359,-0.949,0.046,0.1,-0.041,-0.056
0,-1.941,1.054,0.569,-0.047,-0.135,-0.008,0.356,-0.958,0.041,0.102,-0.046,-0.057
0,-1.941,1.053,0.569,-0.042,-0.146,-0.008,0.405,-0.945,0.05,0.105,-0.051,-0.058
0,-1.941,1.052,0.569,-0.036,-0.156,-0.008,0.485,-1.021,0.066,0.106,-0.055,-0.059
0,-1.941,1.051,0.568,-0.03,-0.166,-0.007,0.569,-1.066,0.063,0.108,-0.058,-0.061
0,-1.941,1.05,0.568,-0.025,-0.177,-0.007,0.584,-1.069,0.02,0.109,-0.062,-0.061
0,-1.941,1.048,0.569,-0.019,-0.187,-0.007,0.608,-1.011,0.018,0.11,-0.067,-0.062
0,-1.941,1.045,0.568,-0.012,-0.198,-0.007,0.63,-1.005,0.013,0.111,-0.07,-0.063
0,-1.94,1.044,0.569,-0.004,-0.208,-0.007,0.629,-1.055,0.035,0.111,-0.074,-0.064
0,-1.94,1.042,0.569,0.003,-0.219,-0.007,0.642,-1.015,0.052,0.111,-0.077,-0.064
0,-1.94,1.041,0.569,0.011,-0.23,-0.006,0.756,-0.973,0.061,0.111,-0.081,-0.065
0,-1.939,1.039,0.569,0.02,-0.241,-0.006,0.76,-1.035,0.018,0.111,-0.085,-0.065
0,-1.938,1.035,0.568,0.029,-0.252,-0.006,0.756,-1.059,0.029,0.112,-0.09,-0.066
0,-1.937,1.033,0.569,0.039,-0.262,-0.006,0.788,-1.013,0.02,0.112,-0.094,-0.066
0,-1.937,1.031,0.569,0.048,-0.274,-0.006,0.857,-1.012,0.045,0.113,-0.099,-0.067
0,-1.936,1.029,0.569,0.058,-0.285,-0.006,0.932,-1.041,0.004,0.114,-0.103,-0.067
0,-1.935,1.027,0.568,0.069,-0.297,-0.006,0.966,-1.078,-0.034,0.114,-0.107,-0.068
0,-1.934,1.022,0.568,0.08,-0.308,-0.006,0.996,-1.02,-0.04,0.114,-0.11,-0.068
0,-1.933,1.02,0.569,0.092,-0.319,-0.007,0.988,-1.032,-0.002,0.114,-0.113,-0.069
0,-1.931,1.017,0.568,0.103,-0.331,-0.007,0.949,-1.054,-0.014,0.113,-0.116,-0.07
0,-1.93,1.015,0.569,0.114,-0.342,-0.007,1.013,-1.012,-0.009,0.112,-0.119,-0.07
0,-1.928,1.009,0.569,0.126,-0.354,-0.008,1.09,-1.036,0.013,0.112,-0.122,-0.071
0,-1.926,1.007,0.568,0.138,-0.365,-0.007,1.13,-1.061,-0.004,0.112,-0.125,-0.071
0,-1.925,1.004,0.568,0.151,-0.377,-0.008,1.101,-1.057,-0.04,0.112,-0.128,-0.071
0,-1.923,1.001,0.568,0.164,-0.388,-0.008,1.118,-1.024,-0.039,0.111,-0.132,-0.071
0,-1.921,0.998,0.569,0.177,-0.4,-0.009,1.151,-0.957,-0.048,0.111,-0.136,-0.072
0,-1.918,0.992,0.568,0.191,-0.411,-0.01,1.17,-1.019,-0.067,0.11,-0.138,-0.072
0,-1.916,0.989,0.568,0.206,-0.422,-0.01,1.206,-1.044,-0.055,0.108,-0.141,-0.072
0,-1.914,0.985,0.569,0.22,-0.433,-0.011,1.219,-0.972,-0.049,0.106,-0.143,-0.072
0,-1.912,0.982,0.568,0.234,-0.444,-0.012,1.228,-0.928,-0.062,0.104,-0.144,-0.072
0,-1.91,0.978,0.568,0.248,-0.454,-0.012,1.207,-0.923,-0.005,0.101,-0.146,-0.072
0,-1.905,0.972,0.568,0.263,-0.464,-0.013,1.212,-0.904,-0.012,0.099,-0.148,-0.071
0,-1.902,0.968,0.568,0.278,-0.473,-0.013,1.295,-0.848,-0.05,0.097,-0.15,-0.071
0,-1.9,0.964,0.568,0.293,-0.483,-0.013,1.346,-0.826,-0.062,0.094,-0.152,-0.071
0,-1.897,0.961,0.568,0.309,-0.493,-0.014,1.305,-0.807,-0.064,0.092,-0.154,-0.07
0,-1.894,0.957,0.568,0.324,-0.502,-0.015,1.276,-0.796,-0.075,0.09,-0.156,-0.07
0,-1.889,0.949,0.568,0.339,-0.511,-0.016,1.334,-0.783,-0.037,0.088,-0.157,-0.069
0,-1.885,0.945,0.568,0.355,-0.519,-0.016,1.351,-0.78,-0.023,0.085,-0.157,-0.069
0,-1.882,0.942,0.568,0.371,-0.528,-0.017,1.284,-0.714,-0.034,0.082,-0.158,-0.068
0,-1.879,0.937,0.568,0.387,-0.536,-0.017,1.274,-0.662,-0.037,0.079,-0.158,-0.067
0,-1.876,0.933,0.568,0.403,-0.544,-0.018,1.293,-0.606,-0.016,0.076,-0.158,-0.066
0,-1.868,0.925,0.568,0.419,-0.551,-0.018,1.301,-0.568,0.001,0.074,-0.158,-0.065
0,-1.865,0.921,0.568,0.436,-0.558,-0.018,1.328,-0.585,-0.0,0.071,-0.159,-0.064
0,-1.861,0.917,0.568,0.451,-0.565,-0.018,1.315,-0.569,-0.001,0.068,-0.159,-0.062
0,-1.857,0.913,0.567,0.468,-0.572,-0.019,1.308,-0.495,0.011,0.065,-0.159,-0.061
0,-1.853,0.909,0.567,0.483,-0.578,-0.019,1.315,-0.437,0.041,0.063,-0.159,-0.059
0,-1.845,0.9,0.568,0.499,-0.584,-0.019,1.322,-0.39,0.018,0.059,-0.158,-0.058
0,-1.841,0.896,0.567,0.516,-0.591,-0.02,1.296,-0.393,0.041,0.058,-0.158,-0.056
0,-1.836,0.891,0.568,0.533,-0.596,-0.02,1.261,-0.411,0.039,0.054,-0.157,-0.054
0,-1.832,0.887,0.567,0.548,-0.602,-0.019,1.257,-0.372,0.045,0.051,-0.156,-0.053
0,-1.827,0.882,0.567,0.564,-0.606,-0.019,1.264,-0.282,0.025,0.047,-0.154,-0.051
0,-1.818,0.873,0.567,0.579,-0.61,-0.019,1.232,-0.202,0.05,0.043,-0.152,-0.049
0,-1.813,0.869,0.567,0.594,-0.612,-0.018,1.185,-0.129,0.056,0.038,-0.151,-0.047
0,-1.808,0.865,0.567,0.609,-0.614,-0.017,1.142,-0.13,0.087,0.033,-0.149,-0.045
0,-1.803,0.86,0.567,0.624,-0.617,-0.017,1.148,-0.133,0.109,0.029,-0.147,-0.042
0,-1.798,0.856,0.567,0.639,-0.619,-0.016,1.149,-0.085,0.107,0.025,-0.146,-0.041
0,-1.787,0.847,0.567,0.654,-0.621,-0.016,1.187,-0.025,0.113,0.021,-0.145,-0.039
0,-1.782,0.842,0.567,0.669,-0.62,-0.014,1.154,0.086,0.093,0.016,-0.142,-0.036
0,-1.776,0.838,0.567,0.684,-0.621,-0.013,1.089,0.138,0.114,0.012,-0.139,-0.034
0,-1.771,0.833,0.567,0.698,-0.621,-0.013,1.01,0.22,0.126,0.008,-0.136,-0.032
0,-1.765,0.829,0.567,0.712,-0.621,-0.012,1.024,0.257,0.122,0.003,-0.134,-0.029
0,-1.754,0.82,0.567,0.725,-0.619,-0.01,1.007,0.265,0.165,-0.001,-0.131,-0.027
0,-1.748,0.816,0.567,0.738,-0.617,-0.009,0.968,0.282,0.159,-0.004,-0.129,-0.024
0,-1.742,0.811,0.567,0.751,-0.614,-0.007,0.984,0.325,0.142,-0.008,-0.127,-0.021
0,-1.736,0.807,0.567,0.764,-0.612,-0.005,0.974,0.387,0.169,-0.012,-0.124,-0.019
0,-1.73,0.803,0.567,0.776,-0.609,-0.004,0.903,0.4,0.146,-0.016,-0.122,-0.016
0,-1.718,0.794,0.567,0.788,-0.605,-0.002,0.86,0.435,0.166,-0.019,-0.12,-0.014
0,-1.711,0.79,0.567,0.8,-0.599,-0.0,0.81,0.487,0.185,-0.023,-0.117,-0.011
0,-1.705,0.786,0.567,0.811,-0.596,0.002,0.774,0.518,0.177,-0.026,-0.113,-0.009
0,-1.699,0.782,0.567,0.823,-0.591,0.003,0.744,0.538,0.186,-0.029,-0.11,-0.006
0,-1.692,0.778,0.568,0.833,-0.586,0.005,0.669,0.579,0.165,-0.032,-0.107,-0.003
0,-1.679,0.77,0.568,0.843,-0.581,0.006,0.685,0.636,0.175,-0.033,-0.104,-0.001
0,-1.672,0.766,0.568,0.854,-0.575,0.008,0.671,0.65,0.176,-0.035,-0.101,0.002
0,-1.666,0.762,0.568,0.864,-0.569,0.01,0.619,0.617,0.179,-0.037,-0.099,0.004
0,-1.659,0.759,0.568,0.873,-0.563,0.011,0.557,0.666,0.156,-0.038,-0.097,0.007
0,-1.652,0.755,0.568,0.882,-0.557,0.013,0.552,0.683,0.079,-0.039,-0.094,0.009
0,-1.638,0.748,0.569,0.891,-0.55,0.013,0.504,0.671,0.09,-0.04,-0.092,0.012
0,-1.631,0.744,0.568,0.899,-0.541,0.014,0.487,0.66,0.084,-0.041,-0.09,0.015
0,-1.624,0.74,0.569,0.908,-0.535,0.015,0.467,0.695,0.055,-0.042,-0.086,0.017
0,-1.617,0.737,0.569,0.915,-0.528,0.016,0.431,0.742,0.061,-0.042,-0.082,0.02
0,-1.61,0.734,0.569,0.922,-0.521,0.017,0.409,0.685,0.056,-0.043,-0.079,0.022
0,-1.596,0.727,0.569,0.928,-0.514,0.017,0.384,0.69,0.051,-0.043,-0.076,0.024
0,-1.589,0.724,0.57,0.933,-0.505,0.018,0.354,0.694,0.025,-0.042,-0.074,0.026
0,-1.581,0.721,0.57,0.94,-0.498,0.019,0.318,0.697,0.064,-0.042,-0.072,0.028
0,-1.575,0.717,0.57,0.945,-0.49,0.021,0.315,0.682,0.059,-0.042,-0.069,0.031
0,-1.567,0.714,0.57,0.95,-0.483,0.022,0.253,0.681,-0.015,-0.041,-0.067,0.033
0,-1.56,0.711,0.57,0.955,-0.476,0.021,0.245,0.66,-0.01,-0.039,-0.065,0.035
0,-1.545,0.705,0.571,0.96,-0.469,0.021,0.212,0.632,-0.011,-0.038,-0.063,0.036
0,-1.538,0.702,0.571,0.963,-0.46,0.021,0.143,0.6,-0.0,-0.037,-0.06,0.038
0,-1.53,0.7,0.571,0.968,-0.453,0.021,0.163,0.597,-0.051,-0.035,-0.058,0.04
0,-1.523,0.697,0.571,0.972,-0.447,0.02,0.106,0.546,-0.055,-0.033,-0.055,0.042
0,-1.516,0.694,0.571,0.975,-0.441,0.02,0.14,0.546,-0.049,-0.031,-0.052,0.044
0,-1.501,0.689,0.571,0.978,-0.435,0.019,0.089,0.499,-0.012,-0.029,-0.05,0.046
0,-1.493,0.686,0.572,0.98,-0.426,0.019,0.07,0.484,-0.056,-0.026,-0.049,0.047
0,-1.486,0.684,0.572,0.984,-0.421,0.018,0.02,0.407,-0.048,-0.022,-0.047,0.048
0,-1.479,0.681,0.572,0.986,-0.415,0.018,-0.0,0.398,0.015,-0.02,-0.046,0.05
0,-1.471,0.679,0.572,0.988,-0.409,0.018,-0.005,0.339,-0.016,-0.017,-0.043,0.051
0,-1.456,0.673,0.572,0.99,-0.404,0.018,-0.016,0.339,-0.035,-0.013,-0.041,0.052
0,-1.449,0.671,0.572,0.99,-0.397,0.017,-0.032,0.331,0.017,-0.01,-0.038,0.054
0,-1.441,0.669,0.572,0.993,-0.393,0.017,-0.057,0.251,0.045,-0.006,-0.035,0.055
0,-1.434,0.667,0.572,0.994,-0.39,0.018,-0.08,0.195,0.089,-0.002,-0.032,0.056
0,-1.419,0.662,0.572,0.995,-0.386,0.018,-0.082,0.201,0.076,0.003,-0.03,0.057
0,-1.411,0.66,0.572,0.995,-0.381,0.019,-0.175,0.119,0.036,0.008,-0.028,0.059
0,-1.403,0.657,0.572,0.996,-0.379,0.02,-0.176,0.083,0.053,0.014,-0.026,0.06
0,-1.396,0.655,0.573,0.997,-0.377,0.02,-0.176,-0.016,0.002,0.02,-0.025,0.061
0,-1.389,0.653,0.572,0.997,-0.376,0.02,-0.179,-0.068,0.005,0.027,-0.024,0.062
0,-1.374,0.648,0.573,0.997,-0.376,0.02,-0.212,-0.139,-0.025,0.033,-0.023,0.063
0,-1.366,0.646,0.573,0.995,-0.374,0.019,-0.198,-0.153,-0.017,0.039,-0.021,0.064
0,-1.359,0.644,0.573,0.996,-0.375,0.018,-0.211,-0.244,0.022,0.044,-0.02,0.065
0,-1.351,0.642,0.573,0.996,-0.377,0.018,-0.21,-0.282,0.066,0.05,-0.019,0.065
0,-1.343,0.639,0.573,0.996,-0.379,0.019,-0.197,-0.345,0.032,0.055,-0.018,0.066
0,-1.329,0.635,0.573,0.995,-0.381,0.019,-0.195,-0.419,0.007,0.06,-0.017,0.068
0,-1.322,0.632,0.573,0.993,-0.382,0.018,-0.177,-0.424,-0.029,0.066,-0.018,0.069
0,-1.314,0.63,0.574,0.993,-0.387,0.017,-0.186,-0.512,-0.046,0.073,-0.018,0.07
0,-1.307,0.627,0.573,0.994,-0.391,0.016,-0.195,-0.557,-0.07,0.079,-0.019,0.072
0,-1.299,0.625,0.573,0.994,-0.396,0.014,-0.196,-0.558,-0.097,0.084,-0.021,0.073
0,-1.285,0.62,0.573,0.994,-0.402,0.013,-0.186,-0.618,-0.08,0.09,-0.021,0.075
0,-1.277,0.618,0.573,0.992,-0.406,0.011,-0.172,-0.689,-0.073,0.094,-0.021,0.076
0,-1.27,0.615,0.573,0.992,-0.412,0.009,-0.174,-0.719,-0.067,0.097,-0.021,0.078
0,-1.262,0.613,0.573,0.993,-0.419,0.008,-0.183,-0.688,-0.045,0.1,-0.02,0.08
0,-1.255,0.61,0.573,0.993,-0.426,0.006,-0.173,-0.718,-0.032,0.103,-0.019,0.081
0,-1.24,0.605,0.573,0.992,-0.433,0.005,-0.144,-0.772,-0.09,0.106,-0.019,0.083
0,-1.233,0.602,0.573,0.988,-0.439,0.004,-0.165,-0.845,-0.072,0.111,-0.017,0.084
0,-1.226,0.599,0.573,0.987,-0.447,0.003,-0.185,-0.901,-0.068,0.115,-0.016,0.086
0,-1.218,0.596,0.573,0.987,-0.455,0.002,-0.175,-0.913,-0.109,0.119,-0.015,0.088
0,-1.211,0.593,0.573,0.986,-0.463,0.0,-0.112,-0.907,-0.122,0.124,-0.015,0.09
0,-1.204,0.59,0.573,0.986,-0.472,-0.002,-0.104,-0.979,-0.14,0.128,-0.016,0.092
0,-1.189,0.584,0.573,0.985,-0.481,-0.004,-0.13,-1.012,-0.189,0.132,-0.017,0.093
0,-1.182,0.581,0.573,0.982,-0.487,-0.007,-0.157,-1.01,-0.136,0.134,-0.016,0.095
0,-1.174,0.577,0.573,0.982,-0.497,-0.009,-0.157,-1.022,-0.105,0.136,-0.015,0.097
0,-1.167,0.574,0.573,0.982,-0.506,-0.01,-0.148,-1.062,-0.104,0.137,-0.015,0.099
0,-1.16,0.571,0.573,0.982,-0.517,-0.012,-0.11,-1.068,-0.113,0.14,-0.015,0.1
0,-1.145,0.564,0.573,0.982,-0.526,-0.015,-0.078,-1.056,-0.08,0.141,-0.016,0.102
0,-1.138,0.561,0.573,0.979,-0.535,-0.017,-0.074,-1.067,-0.093,0.144,-0.017,0.103
0,-1.13,0.556,0.572,0.98,-0.545,-0.019,-0.044,-1.067,-0.104,0.147,-0.019,0.105
0,-1.123,0.553,0.573,0.981,-0.557,-0.021,-0.042,-1.119,-0.152,0.15,-0.02,0.107
0,-1.108,0.545,0.572,0.981,-0.567,-0.023,-0.04,-1.132,-0.173,0.152,-0.022,0.109
0,-1.101,0.541,0.572,0.98,-0.577,-0.026,-0.002,-1.153,-0.215,0.155,-0.023,0.11
0,-1.094,0.537,0.572,0.982,-0.589,-0.03,-0.004,-1.173,-0.223,0.157,-0.025,0.112
0,-1.086,0.533,0.572,0.984,-0.602,-0.033,-0.007,-1.187,-0.212,0.16,-0.026,0.114
0,-1.079,0.529,0.571,0.986,-0.614,-0.036,0.026,-1.188,-0.144,0.161,-0.029,0.115
0,-1.064,0.52,0.571,0.987,-0.626,-0.038,0.073,-1.192,-0.134,0.162,-0.031,0.117
0,-1.057,0.516,0.571,0.986,-0.636,-0.041,0.141,-1.173,-0.112,0.163,-0.033,0.119
0,-1.049,0.511,0.57,0.99,-0.649,-0.043,0.159,-1.193,-0.102,0.164,-0.036,0.12
0,-1.042,0.507,0.571,0.992,-0.662,-0.045,0.192,-1.187,-0.072,0.164,-0.038,0.122
0,-1.034,0.502,0.57,0.996,-0.674,-0.047,0.221,-1.194,-0.027,0.163,-0.042,0.123
0,-1.027,0.498,0.57,0.998,-0.686,-0.048,0.219,-1.144,-0.027,0.162,-0.043,0.124
0,-1.012,0.488,0.57,1.001,-0.698,-0.049,0.243,-1.153,0.042,0.162,-0.043,0.124
0,-1.004,0.483,0.569,1.001,-0.698,-0.049,0.243,-1.153,0.042,0.16,-0.044,0.125
0,-0.997,0.478,0.569,1.001,-0.698,-0.049,0.243,-1.153,0.042,0.16,-0.044,0.125
0,-0.989,0.473,0.569,1.005,-0.719,-0.049,0.174,-1.083,0.137,0.158,-0.044,0.126
0,-0.982,0.467,0.569,1.007,-0.74,-0.048,0.157,-1.046,0.152,0.15,-0.04,0.128
0,-0.966,0.457,0.568,1.009,-0.751,-0.047,0.109,-0.978,0.174,0.146,-0.039,0.129
0,-0.959,0.452,0.568,1.009,-0.76,-0.045,0.106,-0.93,0.182,0.142,-0.038,0.13
0,-0.951,0.446,0.568,1.012,-0.771,-0.043,0.099,-0.9,0.191,0.138,-0.038,0.132
0,-0.943,0.441,0.568,1.016,-0.781,-0.042,0.111,-0.846,0.177,0.135,-0.038,0.133
0,-0.936,0.435,0.568,1.019,-0.791,-0.041,0.139,-0.826,0.14,0.132,-0.038,0.134
0,-0.92,0.424,0.568,1.021,-0.8,-0.04,0.121,-0.813,0.101,0.132,-0.038,0.134
0,-0.913,0.418,0.567,1.021,-0.806,-0.038,0.093,-0.769,0.117,0.126,-0.036,0.137
0,-0.905,0.413,0.567,1.025,-0.815,-0.038,0.078,-0.75,0.125,0.123,-0.036,0.139
0,-0.897,0.407,0.567,1.027,-0.824,-0.037,0.096,-0.758,0.125,0.12,-0.037,0.14
0,-0.889,0.401,0.567,1.03,-0.832,-0.036,0.107,-0.69,0.134,0.116,-0.037,0.141
0,-0.874,0.389,0.567,1.032,-0.839,-0.035,0.093,-0.574,0.108,0.113,-0.038,0.143
0,-0.866,0.383,0.567,1.033,-0.844,-0.033,0.084,-0.542,0.079,0.108,-0.039,0.144
0,-0.858,0.377,0.567,1.037,-0.851,-0.033,0.111,-0.494,0.109,0.103,-0.04,0.145
0,-0.85,0.371,0.567,1.037,-0.851,-0.033,0.111,-0.494,0.109,0.103,-0.04,0.145
0,-0.835,0.359,0.567,1.037,-0.851,-0.033,0.111,-0.494,0.109,0.103,-0.04,0.145
0,-0.827,0.353,0.567,1.048,-0.872,-0.029,0.094,-0.344,0.213,0.093,-0.042,0.147
0,-0.819,0.347,0.567,1.045,-0.87,-0.027,0.134,-0.238,0.202,0.083,-0.042,0.148
0,-0.811,0.341,0.567,1.048,-0.875,-0.025,0.097,-0.185,0.218,0.078,-0.041,0.148
0,-0.803,0.335,0.567,1.052,-0.879,-0.023,0.007,-0.14,0.214,0.074,-0.04,0.149
0,-0.787,0.322,0.567,1.055,-0.882,-0.021,-0.008,-0.115,0.186,0.07,-0.039,0.149
0,-0.779,0.316,0.567,1.056,-0.883,-0.019,-0.001,-0.076,0.159,0.067,-0.039,0.149
0,-0.771,0.31,0.567,1.059,-0.886,-0.017,-0.0,-0.037,0.148,0.063,-0.039,0.15
0,-0.763,0.304,0.567,1.062,-0.889,-0.015,-0.019,0.007,0.145,0.061,-0.039,0.15
0,-0.755,0.298,0.568,1.064,-0.891,-0.014,0.018,0.003,0.068,0.059,-0.04,0.15
0,-0.747,0.292,0.568,1.067,-0.893,-0.013,0.03,-0.009,0.096,0.057,-0.039,0.151
0,-0.731,0.279,0.568,1.067,-0.893,-0.013,0.03,-0.009,0.096,0.057,-0.039,0.151
0,-0.723,0.273,0.568,1.067,-0.893,-0.013,0.03,-0.009,0.096,0.057,-0.039,0.151
0,-0.715,0.267,0.568,1.068,-0.892,-0.01,0.023,0.025,0.122,0.051,-0.038,0.151
0,-0.707,0.261,0.568,1.071,-0.893,-0.006,-0.059,0.091,0.134,0.045,-0.036,0.152
0,-0.691,0.249,0.569,1.073,-0.893,-0.005,-0.074,0.124,0.094,0.042,-0.035,0.152
0,-0.682,0.243,0.569,1.073,-0.89,-0.003,-0.018,0.189,0.104,0.038,-0.035,0.152
0,-0.674,0.237,0.569,1.075,-0.891,-0.001,-0.07,0.194,0.096,0.035,-0.035,0.152
0,-0.666,0.231,0.569,1.077,-0.89,0.001,-0.095,0.278,0.143,0.032,-0.035,0.152
0,-0.658,0.225,0.569,1.078,-0.889,0.002,-0.111,0.334,0.116,0.03,-0.035,0.153
0,-0.65,0.219,0.569,1.079,-0.888,0.004,-0.029,0.395,0.005,0.029,-0.034,0.153
0,-0.634,0.207,0.57,1.08,-0.886,0.004,-0.047,0.419,-0.078,0.028,-0.033,0.153
0,-0.626,0.201,0.57,1.079,-0.881,0.004,-0.079,0.4,-0.132,0.027,-0.031,0.154
0,-0.618,0.195,0.57,1.08,-0.879,0.003,-0.128,0.37,-0.186,0.027,-0.029,0.155
0,-0.61,0.189,0.57,1.081,-0.878,0.002,-0.135,0.356,-0.19,0.026,-0.028,0.155
0,-0.601,0.184,0.57,1.081,-0.876,0.0,-0.133,0.382,-0.21,0.025,-0.026,0.157
0,-0.585,0.172,0.57,1.081,-0.873,-0.002,-0.129,0.435,-0.269,0.024,-0.025,0.158
0,-0.577,0.167,0.571,1.079,-0.868,-0.003,-0.154,0.43,-0.316,0.023,-0.023,0.16
0,-0.569,0.161,0.571,1.079,-0.866,-0.006,-0.193,0.455,-0.268,0.021,-0.023,0.162
0,-0.561,0.155,0.571,1.079,-0.866,-0.006,-0.193,0.455,-0.268,0.021,-0.023,0.162
0,-0.553,0.15,0.571,1.079,-0.862,-0.011,-0.128,0.573,-0.268,0.017,-0.023,0.168
0,-0.536,0.139,0.571,1.078,-0.859,-0.013,-0.142,0.644,-0.288,0.014,-0.022,0.171
0,-0.528,0.133,0.571,1.076,-0.851,-0.015,-0.072,0.643,-0.234,0.011,-0.022,0.175
0,-0.52,0.128,0.571,1.077,-0.848,-0.018,-0.063,0.66,-0.287,0.007,-0.023,0.179
0,-0.512,0.123,0.571,1.077,-0.844,-0.02,-0.048,0.742,-0.374,0.003,-0.023,0.183
0,-0.496,0.112,0.57,1.076,-0.84,-0.024,-0.04,0.739,-0.502,-0.0,-0.023,0.187
0,-0.488,0.107,0.57,1.075,-0.832,-0.029,-0.087,0.849,-0.524,-0.003,-0.024,0.191
0,-0.479,0.102,0.57,1.075,-0.827,-0.033,-0.003,0.865,-0.535,-0.005,-0.024,0.196
0,-0.471,0.097,0.57,1.075,-0.822,-0.038,0.007,0.84,-0.487,-0.007,-0.024,0.2
0,-0.463,0.092,0.569,1.075,-0.817,-0.043,-0.09,0.809,-0.286,-0.007,-0.024,0.204
0,-0.455,0.087,0.569,1.074,-0.81,-0.045,-0.125,0.845,-0.091,-0.007,-0.024,0.207
0,-0.438,0.077,0.568,1.073,-0.804,-0.045,-0.07,0.719,0.017,-0.005,-0.023,0.21
0,-0.43,0.072,0.568,1.07,-0.794,-0.044,-0.139,0.663,0.048,-0.003,-0.02,0.213
0,-0.422,0.067,0.567,1.07,-0.789,-0.044,-0.241,0.591,0.09,0.001,-0.017,0.215
0,-0.414,0.063,0.567,1.069,-0.784,-0.042,-0.267,0.461,0.143,0.005,-0.013,0.217
0,-0.406,0.058,0.567,1.068,-0.779,-0.04,-0.33,0.37,0.131,0.009,-0.008,0.22
0,-0.389,0.049,0.566,1.066,-0.775,-0.039,-0.419,0.329,0.073,0.013,-0.005,0.222
0,-0.381,0.044,0.566,1.062,-0.765,-0.037,-0.403,0.257,0.098,0.016,-0.001,0.224
0,-0.373,0.04,0.565,1.06,-0.762,-0.036,-0.422,0.181,0.082,0.019,0.002,0.226
0,-0.365,0.036,0.565,1.058,-0.759,-0.036,-0.542,0.24,-0.058,0.022,0.005,0.227
0,-0.357,0.031,0.565,1.056,-0.757,-0.036,-0.532,0.284,-0.039,0.024,0.007,0.229
0,-0.341,0.022,0.564,1.053,-0.753,-0.036,-0.451,0.181,0.014,0.025,0.01,0.23
0,-0.333,0.018,0.564,1.048,-0.746,-0.036,-0.451,0.172,-0.102,0.026,0.012,0.232
0,-0.325,0.013,0.563,1.045,-0.743,-0.037,-0.498,0.232,-0.191,0.027,0.014,0.233
0,-0.317,0.009,0.563,1.042,-0.741,-0.039,-0.444,0.253,-0.075,0.027,0.014,0.235
0,-0.301,0.0,0.562,1.039,-0.738,-0.039,-0.391,0.207,-0.057,0.026,0.014,0.236
0,-0.294,-0.004,0.562,1.033,-0.731,-0.04,-0.427,0.187,-0.154,0.025,0.013,0.237
0,-0.286,-0.008,0.562,1.031,-0.729,-0.041,-0.478,0.284,-0.083,0.024,0.01,0.238
0,-0.278,-0.013,0.561,1.028,-0.727,-0.042,-0.374,0.412,-0.017,0.023,0.006,0.239
0,-0.27,-0.017,0.561,1.026,-0.724,-0.042,-0.194,0.306,0.088,0.024,0.003,0.239
0,-0.254,-0.025,0.56,1.023,-0.721,-0.041,-0.246,0.408,0.076,0.025,-0.0,0.24
0,-0.247,-0.03,0.56,1.02,-0.713,-0.041,-0.201,0.369,-0.001,0.027,-0.002,0.241
0,-0.239,-0.034,0.559,1.019,-0.71,-0.041,-0.117,0.225,-0.02,0.029,-0.004,0.241
0,-0.231,-0.038,0.559,1.018,-0.708,-0.042,-0.294,0.273,-0.05,0.033,-0.005,0.241
0,-0.223,-0.042,0.559,1.017,-0.706,-0.043,-0.258,0.244,-0.028,0.037,-0.005,0.242
0,-0.208,-0.05,0.558,1.016,-0.703,-0.044,-0.225,0.258,0.098,0.042,-0.005,0.242
0,-0.2,-0.054,0.557,1.013,-0.697,-0.043,-0.277,0.189,0.101,0.048,-0.005,0.243
0,-0.193,-0.058,0.557,1.013,-0.697,-0.043,-0.087,0.036,0.054,0.054,-0.004,0.244
0,-0.185,-0.062,0.556,1.012,-0.697,-0.043,-0.087,0.036,0.054,0.054,-0.004,0.244
0,-0.177,-0.066,0.556,1.012,-0.697,-0.043,-0.154,0.019,-0.098,0.054,-0.004,0.244
0,-0.169,-0.07,0.556,1.012,-0.697,-0.043,-0.154,0.019,-0.098,0.06,-0.004,0.245
0,-0.146,-0.082,0.554,1.011,-0.696,-0.044,-0.162,0.073,-0.13,0.06,-0.004,0.245
0,-0.146,-0.082,0.554,1.013,-0.702,-0.046,-0.052,-0.024,0.018,0.067,-0.002,0.247
0,-0.139,-0.086,0.554,1.007,-0.704,-0.045,-0.2,-0.114,-0.078,0.071,-0.0,0.248
0,-0.131,-0.09,0.554,0.992,-0.686,-0.048,-0.301,-0.15,-0.053,0.078,0.004,0.248
0,-0.115,-0.099,0.553,0.992,-0.688,-0.05,-0.363,-0.194,-0.03,0.082,0.006,0.248
0,-0.108,-0.103,0.552,0.99,-0.687,-0.052,-0.31,-0.255,-0.125,0.085,0.009,0.248
0,-0.1,-0.107,0.552,0.989,-0.69,-0.054,-0.371,-0.288,-0.253,0.088,0.013,0.248
0,-0.092,-0.111,0.552,0.989,-0.694,-0.057,-0.485,-0.291,-0.243,0.091,0.016,0.249
0,-0.085,-0.115,0.551,0.987,-0.697,-0.06,-0.434,-0.318,-0.274,0.093,0.019,0.25
0,-0.077,-0.119,0.551,0.986,-0.701,-0.064,-0.441,-0.289,-0.315,0.094,0.022,0.25
0,-0.062,-0.127,0.55,0.983,-0.705,-0.068,-0.522,-0.335,-0.169,0.094,0.024,0.251
0,-0.055,-0.132,0.549,0.98,-0.703,-0.07,-0.525,-0.391,-0.113,0.093,0.027,0.252
0,-0.047,-0.136,0.549,0.978,-0.708,-0.072,-0.532,-0.377,-0.205,0.091,0.03,0.253
0,-0.04,-0.14,0.548,0.976,-0.711,-0.075,-0.595,-0.301,-0.231,0.088,0.033,0.255
0,-0.025,-0.149,0.547,0.972,-0.715,-0.078,-0.529,-0.299,-0.193,0.085,0.034,0.256
0,-0.018,-0.153,0.546,0.967,-0.713,-0.08,-0.573,-0.222,-0.25,0.08,0.036,0.257
0,-0.01,-0.157,0.546,0.964,-0.716,-0.083,-0.572,-0.146,-0.227,0.075,0.036,0.258
0,-0.003,-0.161,0.545,0.961,-0.719,-0.086,-0.463,-0.237,0.034,0.07,0.037,0.258
0,0.004,-0.166,0.545,0.958,-0.721,-0.086,-0.537,-0.239,0.086,0.066,0.037,0.258
0,0.011,-0.17,0.544,0.954,-0.723,-0.086,-0.638,-0.153,0.057,0.063,0.037,0.258
0,0.026,-0.179,0.543,0.949,-0.725,-0.085,-0.59,-0.222,0.152,0.062,0.037,0.257
0,0.033,-0.183,0.542,0.942,-0.721,-0.084,-0.576,-0.226,0.228,0.062,0.036,0.256
0,0.04,-0.187,0.542,0.938,-0.722,-0.082,-0.578,-0.216,0.214,0.064,0.034,0.255
0,0.047,-0.192,0.541,0.934,-0.724,-0.08,-0.484,-0.271,0.182,0.067,0.033,0.254
0,0.061,-0.2,0.54,0.93,-0.725,-0.079,-0.46,-0.343,0.133,0.071,0.029,0.252
0,0.068,-0.205,0.539,0.924,-0.722,-0.078,-0.47,-0.339,0.131,0.076,0.026,0.251
0,0.075,-0.209,0.539,0.921,-0.724,-0.077,-0.37,-0.412,0.232,0.082,0.021,0.249
0,0.082,-0.214,0.538,0.919,-0.728,-0.075,-0.298,-0.563,0.217,0.088,0.017,0.247
0,0.089,-0.218,0.537,0.917,-0.731,-0.073,-0.327,-0.6,0.215,0.093,0.012,0.245
0,0.095,-0.223,0.537,0.915,-0.735,-0.071,-0.289,-0.554,0.2,0.099,0.008,0.243
0,0.109,-0.232,0.536,0.911,-0.728,-0.071,-0.227,-0.637,0.251,0.104,0.004,0.24
0,0.116,-0.237,0.535,0.907,-0.727,-0.069,-0.201,-0.672,0.288,0.108,-0.0,0.238
0,0.123,-0.241,0.535,0.91,-0.743,-0.065,-0.115,-0.719,0.22,0.112,-0.004,0.236
0,0.13,-0.246,0.535,0.908,-0.738,-0.065,-0.102,-0.722,0.164,0.115,-0.008,0.233
0,0.136,-0.251,0.534,0.908,-0.743,-0.064,-0.065,-0.734,0.237,0.117,-0.012,0.231
0,0.15,-0.26,0.533,0.908,-0.749,-0.062,-0.036,-0.778,0.31,0.118,-0.016,0.229
0,0.157,-0.265,0.533,0.907,-0.75,-0.06,0.02,-0.762,0.318,0.118,-0.02,0.226
0,0.164,-0.27,0.533,0.909,-0.756,-0.058,0.077,-0.749,0.261,0.118,-0.024,0.224
0,0.17,-0.276,0.532,0.911,-0.763,-0.055,0.086,-0.736,0.225,0.118,-0.028,0.221
0,0.184,-0.286,0.532,0.914,-0.769,-0.054,0.064,-0.699,0.275,0.117,-0.031,0.219
0,0.191,-0.291,0.531,0.915,-0.771,-0.052,0.114,-0.679,0.302,0.117,-0.034,0.216
0,0.198,-0.296,0.531,0.919,-0.778,-0.05,0.195,-0.678,0.323,0.116,-0.038,0.213
0,0.205,-0.301,0.531,0.923,-0.785,-0.048,0.218,-0.689,0.359,0.116,-0.041,0.211
0,0.212,-0.307,0.531,0.926,-0.791,-0.045,0.237,-0.685,0.339,0.116,-0.044,0.208
0,0.219,-0.312,0.53,0.93,-0.797,-0.042,0.292,-0.665,0.309,0.115,-0.047,0.205
0,0.233,-0.323,0.53,0.934,-0.802,-0.039,0.278,-0.674,0.279,0.115,-0.051,0.203
0,0.24,-0.328,0.53,0.936,-0.804,-0.036,0.339,-0.675,0.277,0.114,-0.055,0.2
0,0.247,-0.334,0.53,0.941,-0.81,-0.034,0.302,-0.638,0.304,0.114,-0.059,0.197
0,0.254,-0.339,0.53,0.947,-0.816,-0.032,0.341,-0.633,0.298,0.114,-0.062,0.194
0,0.268,-0.351,0.53,0.952,-0.821,-0.029,0.416,-0.587,0.287,0.114,-0.065,0.192
0,0.275,-0.356,0.53,0.956,-0.824,-0.027,0.43,-0.586,0.326,0.114,-0.067,0.189
0,0.283,-0.362,0.53,0.962,-0.83,-0.024,0.478,-0.649,0.369,0.113,-0.069,0.186
0,0.29,-0.368,0.53,0.969,-0.836,-0.022,0.45,-0.621,0.354,0.112,-0.071,0.183
0,0.297,-0.374,0.53,0.975,-0.842,-0.018,0.496,-0.593,0.338,0.111,-0.073,0.18
0,0.312,-0.386,0.53,0.981,-0.847,-0.015,0.442,-0.583,0.305,0.111,-0.074,0.177
0,0.319,-0.391,0.53,0.986,-0.849,-0.012,0.437,-0.521,0.282,0.11,-0.077,0.174
0,0.327,-0.397,0.53,0.994,-0.855,-0.01,0.48,-0.488,0.238,0.108,-0.079,0.171
0,0.334,-0.403,0.53,1.001,-0.861,-0.008,0.472,-0.54,0.267,0.106,-0.082,0.168
0,0.342,-0.409,0.531,1.008,-0.866,-0.006,0.485,-0.449,0.298,0.104,-0.085,0.166
0,0.357,-0.421,0.531,1.015,-0.871,-0.003,0.485,-0.449,0.298,0.104,-0.085,0.166
0,0.365,-0.427,0.531,1.015,-0.871,-0.003,0.485,-0.449,0.298,0.104,-0.085,0.166
0,0.373,-0.433,0.531,1.015,-0.871,-0.003,0.559,-0.451,0.345,0.101,-0.088,0.163
0,0.38,-0.439,0.532,1.015,-0.871,-0.003,0.559,-0.451,0.345,0.101,-0.088,0.163
0,0.388,-0.446,0.532,1.041,-0.889,0.006,0.574,-0.348,0.369,0.095,-0.091,0.155
0,0.396,-0.452,0.532,1.05,-0.888,0.013,0.545,-0.408,0.32,0.094,-0.092,0.152
0,0.412,-0.464,0.533,1.058,-0.891,0.015,0.559,-0.363,0.292,0.092,-0.092,0.15
0,0.42,-0.47,0.533,1.063,-0.89,0.018,0.538,-0.339,0.23,0.091,-0.094,0.147
0,0.428,-0.477,0.534,1.071,-0.894,0.02,0.542,-0.336,0.231,0.089,-0.094,0.144
0,0.436,-0.483,0.534,1.08,-0.898,0.022,0.516,-0.336,0.215,0.088,-0.094,0.141
0,0.452,-0.495,0.535,1.087,-0.901,0.024,0.484,-0.329,0.241,0.087,-0.095,0.138
0,0.46,-0.502,0.535,1.092,-0.901,0.027,0.468,-0.3,0.256,0.085,-0.094,0.135
0,0.469,-0.508,0.536,1.101,-0.905,0.029,0.449,-0.293,0.244,0.084,-0.093,0.132
0,0.477,-0.515,0.536,1.109,-0.908,0.031,0.454,-0.263,0.241,0.082,-0.092,0.13
0,0.485,-0.521,0.537,1.117,-0.912,0.032,0.452,-0.212,0.236,0.081,-0.092,0.127
0,0.494,-0.527,0.537,1.124,-0.914,0.034,0.477,-0.23,0.206,0.079,-0.091,0.124
0,0.51,-0.54,0.538,1.131,-0.917,0.035,0.47,-0.272,0.167,0.078,-0.091,0.121
0,0.519,-0.546,0.539,1.135,-0.916,0.037,0.418,-0.259,0.161,0.077,-0.09,0.118
0,0.528,-0.553,0.54,1.142,-0.919,0.039,0.359,-0.215,0.117,0.075,-0.088,0.116
0,0.536,-0.559,0.54,1.149,-0.921,0.04,0.377,-0.195,0.098,0.074,-0.085,0.113
0,0.553,-0.572,0.541,1.155,-0.923,0.041,0.348,-0.186,0.075,0.072,-0.083,0.111
0,0.562,-0.579,0.542,1.158,-0.922,0.043,0.289,-0.178,0.055,0.071,-0.081,0.108
0,0.571,-0.585,0.542,1.165,-0.925,0.044,0.292,-0.153,0.086,0.07,-0.078,0.106
0,0.579,-0.591,0.543,1.17,-0.927,0.044,0.225,-0.174,0.109,0.069,-0.075,0.103
0,0.588,-0.598,0.544,1.175,-0.929,0.045,0.191,-0.178,0.106,0.068,-0.072,0.101
0,0.605,-0.611,0.545,1.18,-0.93,0.046,0.147,-0.193,0.152,0.068,-0.068,0.099
0,0.614,-0.618,0.546,1.181,-0.928,0.049,0.107,-0.19,0.149,0.067,-0.065,0.096
0,0.623,-0.624,0.546,1.186,-0.931,0.05,0.105,-0.21,0.121,0.067,-0.061,0.094
0,0.632,-0.63,0.547,1.189,-0.933,0.052,0.036,-0.239,0.072,0.067,-0.058,0.092
0,0.641,-0.637,0.547,1.193,-0.935,0.053,-0.001,-0.195,0.004,0.067,-0.055,0.09
0,0.649,-0.643,0.548,1.195,-0.937,0.053,-0.017,-0.179,-0.072,0.067,-0.052,0.088
0,0.667,-0.656,0.549,1.197,-0.938,0.052,-0.039,-0.203,-0.056,0.067,-0.05,0.086
0,0.676,-0.663,0.55,1.196,-0.936,0.052,-0.055,-0.182,-0.075,0.067,-0.047,0.084
0,0.685,-0.669,0.551,1.197,-0.938,0.052,-0.093,-0.199,-0.058,0.066,-0.044,0.083
0,0.693,-0.676,0.551,1.199,-0.94,0.052,-0.152,-0.204,-0.045,0.065,-0.04,0.081
0,0.711,-0.689,0.553,1.199,-0.941,0.052,-0.18,-0.179,-0.049,0.065,-0.038,0.08
0,0.72,-0.695,0.553,1.197,-0.939,0.053,-0.237,-0.159,-0.082,0.063,-0.035,0.078
0,0.728,-0.702,0.554,1.198,-0.941,0.053,-0.284,-0.112,-0.112,0.062,-0.033,0.076
0,0.737,-0.709,0.554,1.199,-0.943,0.052,-0.292,-0.117,-0.092,0.061,-0.031,0.075
0,0.746,-0.715,0.555,1.199,-0.944,0.051,-0.303,-0.1,-0.075,0.06,-0.028,0.074
0,0.755,-0.722,0.555,1.198,-0.945,0.05,-0.295,-0.119,-0.067,0.059,-0.026,0.073
0,0.772,-0.735,0.557,1.197,-0.946,0.049,-0.311,-0.129,-0.058,0.059,-0.025,0.071
0,0.781,-0.741,0.557,1.193,-0.942,0.05,-0.338,-0.133,-0.097,0.058,-0.023,0.07
0,0.789,-0.748,0.558,1.192,-0.944,0.049,-0.354,-0.142,-0.188,0.058,-0.021,0.069
0,0.798,-0.754,0.558,1.191,-0.945,0.047,-0.39,-0.121,-0.234,0.058,-0.02,0.068
0,0.815,-0.768,0.559,1.19,-0.946,0.045,-0.402,-0.119,-0.254,0.058,-0.017,0.066
0,0.824,-0.775,0.56,1.185,-0.944,0.044,-0.378,-0.115,-0.185,0.058,-0.017,0.066
0,0.832,-0.781,0.56,1.184,-0.946,0.042,-0.366,-0.142,-0.14,0.057,-0.016,0.065
0,0.841,-0.787,0.56,1.182,-0.947,0.041,-0.402,-0.113,-0.148,0.057,-0.015,0.064
0,0.85,-0.794,0.561,1.179,-0.948,0.04,-0.463,-0.096,-0.216,0.057,-0.013,0.064
0,0.867,-0.807,0.562,1.177,-0.949,0.038,-0.457,-0.064,-0.285,0.057,-0.01,0.063
0,0.875,-0.814,0.562,1.17,-0.946,0.037,-0.494,-0.056,-0.287,0.057,-0.01,0.063
0,0.883,-0.82,0.563,1.168,-0.948,0.035,-0.484,-0.064,-0.215,0.057,-0.009,0.062
0,0.892,-0.827,0.563,1.166,-0.949,0.032,-0.462,-0.078,-0.168,0.057,-0.009,0.062
0,0.901,-0.833,0.564,1.163,-0.95,0.031,-0.448,-0.069,-0.17,0.057,-0.008,0.061
0,0.917,-0.847,0.564,1.16,-0.95,0.03,-0.478,-0.059,-0.259,0.056,-0.006,0.061
0,0.925,-0.853,0.564,1.153,-0.947,0.028,-0.488,-0.037,-0.283,0.056,-0.006,0.061
0,0.933,-0.859,0.564,1.151,-0.949,0.025,-0.471,-0.069,-0.19,0.055,-0.006,0.061
0,0.942,-0.866,0.565,1.149,-0.951,0.022,-0.456,-0.095,-0.149,0.056,-0.007,0.061
0,0.95,-0.873,0.565,1.146,-0.952,0.02,-0.42,-0.137,-0.172,0.056,-0.007,0.06
0,0.967,-0.886,0.566,1.143,-0.952,0.018,-0.44,-0.127,-0.255,0.055,-0.008,0.06
0,0.975,-0.893,0.566,1.135,-0.949,0.018,-0.49,-0.088,-0.275,0.055,-0.008,0.06
0,0.983,-0.899,0.566,1.133,-0.951,0.014,-0.457,-0.077,-0.246,0.056,-0.009,0.06
0,0.991,-0.906,0.566,1.131,-0.952,0.012,-0.436,-0.119,-0.196,0.056,-0.01,0.06
0,0.999,-0.912,0.566,1.128,-0.953,0.009,-0.467,-0.125,-0.182,0.057,-0.011,0.059
0,1.015,-0.926,0.566,1.125,-0.954,0.007,-0.424,-0.093,-0.255,0.058,-0.012,0.058
0,1.023,-0.932,0.566,1.118,-0.951,0.005,-0.417,-0.112,-0.309,0.058,-0.013,0.058
0,1.031,-0.939,0.566,1.118,-0.951,0.005,-0.417,-0.112,-0.309,0.058,-0.013,0.058
0,1.039,-0.945,0.567,1.118,-0.951,0.005,-0.417,-0.112,-0.309,0.058,-0.013,0.058
0,1.047,-0.952,0.567,1.116,-0.953,0.002,-0.425,-0.062,-0.237,0.058,-0.013,0.058
0,1.056,-0.959,0.567,1.113,-0.955,-0.0,-0.425,-0.062,-0.237,0.058,-0.012,0.058
0,1.071,-0.972,0.567,1.113,-0.955,-0.0,-0.381,-0.082,-0.17,0.059,-0.013,0.058
0,1.079,-0.979,0.567,1.114,-0.961,-0.003,-0.381,-0.082,-0.17,0.059,-0.013,0.058
0,1.079,-0.979,0.567,1.114,-0.961,-0.003,-0.381,-0.082,-0.17,0.059,-0.013,0.058
0,1.079,-0.979,0.567,1.114,-0.961,-0.003,-0.381,-0.082,-0.17,0.059,-0.013,0.058
0,1.11,-1.005,0.567,1.109,-0.96,-0.004,-0.4,-0.129,-0.18,0.059,-0.013,0.057
0,1.118,-1.012,0.566,1.098,-0.954,-0.004,-0.416,-0.101,-0.282,0.058,-0.013,0.057
0,1.126,-1.018,0.566,1.095,-0.961,-0.011,-0.342,-0.132,-0.159,0.051,-0.016,0.056
0,1.134,-1.025,0.566,1.058,-0.937,-0.018,-0.33,-0.001,-0.191,0.048,-0.016,0.056
0,1.142,-1.032,0.566,1.055,-0.94,-0.022,-0.332,0.036,-0.135,0.04,-0.019,0.055
0,1.157,-1.045,0.566,1.054,-0.941,-0.023,-0.379,0.127,-0.224,0.031,-0.021,0.054
0,1.165,-1.051,0.566,1.05,-0.938,-0.025,-0.368,0.192,-0.198,0.026,-0.022,0.054
0,1.173,-1.058,0.566,1.05,-0.938,-0.027,-0.359,0.232,-0.152,0.02,-0.024,0.054
0,1.18,-1.064,0.565,1.049,-0.937,-0.029,-0.338,0.286,-0.098,0.015,-0.024,0.054
0,1.188,-1.071,0.565,1.048,-0.935,-0.03,-0.309,0.321,-0.095,0.01,-0.026,0.054
0,1.204,-1.084,0.565,1.047,-0.933,-0.031,-0.317,0.343,-0.135,0.005,-0.027,0.054
0,1.211,-1.09,0.565,1.044,-0.927,-0.032,-0.309,0.384,-0.171,0.001,-0.028,0.054
0,1.219,-1.096,0.565,1.044,-0.924,-0.034,-0.3,0.407,-0.089,-0.005,-0.029,0.054
0,1.227,-1.103,0.564,1.044,-0.921,-0.035,-0.259,0.491,-0.057,-0.01,-0.029,0.054
0,1.234,-1.109,0.564,1.043,-0.916,-0.036,-0.246,0.546,-0.018,-0.014,-0.028,0.054
0,1.25,-1.121,0.564,1.043,-0.911,-0.036,-0.232,0.594,0.028,-0.019,-0.027,0.054
0,1.258,-1.128,0.564,1.04,-0.902,-0.036,-0.254,0.643,-0.04,-0.019,-0.028,0.054
0,1.265,-1.134,0.563,1.04,-0.895,-0.035,-0.296,0.681,-0.067,-0.024,-0.025,0.054
0,1.273,-1.14,0.563,1.039,-0.889,-0.036,-0.302,0.699,-0.052,-0.029,-0.022,0.054
0,1.281,-1.146,0.563,1.038,-0.882,-0.036,-0.386,0.77,-0.053,-0.038,-0.015,0.055
0,1.295,-1.158,0.562,1.036,-0.873,-0.035,-0.424,0.796,-0.016,-0.039,-0.015,0.055
0,1.303,-1.163,0.562,1.032,-0.861,-0.035,-0.43,0.815,0.054,-0.044,-0.011,0.056
0,1.311,-1.169,0.562,1.03,-0.853,-0.035,-0.463,0.851,0.015,-0.049,-0.008,0.056
0,1.318,-1.174,0.561,1.028,-0.844,-0.034,-0.514,0.914,-0.084,-0.054,-0.004,0.056
0,1.326,-1.18,0.561,1.025,-0.835,-0.034,-0.58,0.969,-0.118,-0.058,0.0,0.056
0,1.341,-1.191,0.561,1.021,-0.824,-0.035,-0.581,1.022,-0.115,-0.063,0.004,0.057
0,1.348,-1.196,0.56,1.014,-0.81,-0.036,-0.618,1.001,-0.032,-0.067,0.008,0.057
0,1.355,-1.201,0.56,1.01,-0.8,-0.036,-0.656,1.019,-0.049,-0.071,0.012,0.057
0,1.363,-1.206,0.56,1.006,-0.79,-0.036,-0.733,1.065,-0.153,-0.074,0.016,0.057
0,1.37,-1.211,0.559,1.001,-0.779,-0.037,-0.796,1.122,-0.175,-0.078,0.02,0.057
0,1.385,-1.221,0.559,0.995,-0.767,-0.038,-0.824,1.181,-0.081,-0.082,0.024,0.057
0,1.392,-1.226,0.559,0.987,-0.751,-0.039,-0.792,1.171,-0.07,-0.086,0.027,0.058
0,1.399,-1.231,0.558,0.981,-0.738,-0.039,-0.813,1.182,-0.067,-0.09,0.031,0.058
0,1.406,-1.235,0.558,0.975,-0.725,-0.039,-0.888,1.237,-0.164,-0.094,0.035,0.058
0,1.414,-1.24,0.558,0.968,-0.711,-0.039,-0.964,1.263,-0.204,-0.098,0.04,0.058
0,1.42,-1.244,0.557,0.96,-0.697,-0.04,-0.985,1.295,-0.14,-0.101,0.045,0.058
0,1.434,-1.253,0.556,0.952,-0.683,-0.041,-0.976,1.311,-0.059,-0.103,0.05,0.058
0,1.44,-1.257,0.556,0.94,-0.664,-0.041,-1.047,1.303,-0.06,-0.106,0.054,0.058
0,1.447,-1.261,0.555,0.931,-0.65,-0.041,-1.084,1.312,-0.107,-0.108,0.057,0.058
0,1.454,-1.265,0.555,0.922,-0.636,-0.042,-1.153,1.358,-0.214,-0.109,0.061,0.057
0,1.46,-1.269,0.554,0.912,-0.622,-0.043,-1.189,1.35,-0.222,-0.109,0.061,0.057
0,1.473,-1.276,0.553,0.912,-0.622,-0.043,-1.189,1.35,-0.222,-0.11,0.065,0.057
0,1.48,-1.279,0.553,0.902,-0.607,-0.045,-1.193,1.38,-0.152,-0.111,0.069,0.056
0,1.486,-1.283,0.552,0.891,-0.591,-0.045,-1.223,1.35,-0.079,-0.112,0.073,0.056
0,1.492,-1.286,0.552,0.881,-0.577,-0.046,-1.257,1.331,-0.094,-0.111,0.077,0.055
0,1.505,-1.292,0.551,0.856,-0.544,-0.047,-1.361,1.288,-0.219,-0.111,0.081,0.054
0,1.51,-1.295,0.55,0.841,-0.526,-0.048,-1.429,1.304,-0.18,-0.109,0.09,0.053
0,1.516,-1.299,0.549,0.829,-0.512,-0.049,-1.424,1.305,-0.107,-0.108,0.094,0.051
0,1.522,-1.301,0.549,0.817,-0.498,-0.05,-1.439,1.265,-0.06,-0.107,0.097,0.05
0,1.527,-1.304,0.548,0.803,-0.484,-0.05,-1.5,1.241,-0.151,-0.106,0.101,0.049
0,1.533,-1.307,0.547,0.79,-0.47,-0.051,-1.532,1.197,-0.185,-0.104,0.104,0.048
0,1.544,-1.311,0.546,0.776,-0.456,-0.052,-1.538,1.211,-0.177,-0.103,0.107,0.046
0,1.549,-1.314,0.545,0.759,-0.439,-0.054,-1.521,1.188,-0.161,-0.101,0.109,0.044
0,1.555,-1.316,0.545,0.746,-0.425,-0.055,-1.555,1.167,-0.11,-0.099,0.112,0.043
0,1.559,-1.318,0.544,0.731,-0.411,-0.055,-1.553,1.134,-0.064,-0.099,0.112,0.043
0,1.565,-1.321,0.543,0.716,-0.398,-0.056,-1.536,1.119,-0.07,-0.098,0.115,0.042
0,1.574,-1.325,0.541,0.716,-0.398,-0.056,-1.536,1.119,-0.07,-0.096,0.117,0.04
0,1.579,-1.326,0.541,0.701,-0.384,-0.056,-1.536,1.119,-0.07,-0.096,0.117,0.04
0,1.579,-1.326,0.541,0.701,-0.384,-0.056,-1.536,1.119,-0.07,-0.096,0.117,0.04
0,1.579,-1.326,0.541,0.701,-0.384,-0.056,-1.536,1.119,-0.07,-0.096,0.117,0.04
0,1.579,-1.326,0.541,0.701,-0.384,-0.056,-1.536,1.119,-0.07,-0.096,0.117,0.04
0,1.579,-1.326,0.541,0.701,-0.384,-0.056,-1.536,1.119,-0.07,-0.096,0.117,0.04
0,1.605,-1.336,0.536,0.689,-0.375,-0.056,-1.589,1.084,-0.142,-0.094,0.122,0.037
0,1.609,-1.338,0.535,0.673,-0.361,-0.057,-1.589,1.084,-0.142,-0.094,0.122,0.037
0,1.613,-1.339,0.534,0.648,-0.344,-0.058,-1.59,1.004,-0.094,-0.088,0.126,0.033
0,1.621,-1.341,0.533,0.622,-0.329,-0.059,-1.648,0.92,-0.031,-0.078,0.129,0.025
0,1.624,-1.342,0.531,0.527,-0.243,-0.057,-1.622,0.894,-0.071,-0.08,0.131,0.025
0,1.628,-1.344,0.531,0.497,-0.224,-0.061,-1.587,0.771,-0.069,-0.066,0.131,0.015
0,1.631,-1.344,0.53,0.482,-0.215,-0.063,-1.599,0.748,-0.047,-0.063,0.131,0.011
0,1.634,-1.345,0.529,0.468,-0.207,-0.064,-1.569,0.693,-0.02,-0.058,0.13,0.009
0,1.64,-1.347,0.527,0.454,-0.199,-0.065,-1.557,0.656,-0.039,-0.053,0.128,0.005
0,1.643,-1.348,0.526,0.439,-0.19,-0.067,-1.58,0.61,-0.024,-0.047,0.126,0.002
0,1.646,-1.348,0.525,0.425,-0.184,-0.069,-1.517,0.583,-0.001,-0.04,0.123,-0.002
0,1.649,-1.349,0.525,0.412,-0.178,-0.07,-1.442,0.538,0.039,-0.034,0.12,-0.005
1,-1.935,1.005,0.57,-0.093,-0.013,-0.029,-0.009,0.113,0.082,0.004,0.009,-0.022
1,-1.935,1.005,0.569,-0.092,-0.012,-0.028,0.003,0.124,0.062,0.003,0.008,-0.021
1,-1.935,1.005,0.569,-0.089,-0.012,-0.028,0.009,0.142,0.045,0.003,0.008,-0.019
1,-1.935,1.005,0.569,-0.088,-0.013,-0.028,0.008,0.155,0.043,0.002,0.007,-0.016
1,-1.935,1.005,0.569,-0.088,-0.013,-0.028,-0.007,0.114,0.026,0.002,0.007,-0.015
1,-1.934,1.005,0.569,-0.089,-0.013,-0.027,0.001,0.116,0.023,0.002,0.007,-0.015
1,-1.934,1.004,0.568,-0.083,-0.013,-0.027,0.001,0.116,0.023,0.002,0.008,-0.013
1,-1.934,1.004,0.567,-0.083,-0.013,-0.027,-0.021,0.109,0.019,0.002,0.008,-0.012
1,-1.934,1.004,0.567,-0.082,-0.012,-0.028,-0.041,0.123,0.054,0.002,0.008,-0.01
1,-1.934,1.004,0.567,-0.08,-0.012,-0.027,0.008,0.142,0.031,0.002,0.008,-0.01
1,-1.934,1.004,0.567,-0.079,-0.013,-0.027,0.0,0.128,0.042,0.001,0.009,-0.007
1,-1.933,1.004,0.567,-0.079,-0.013,-0.027,0.0,0.128,0.042,0.001,0.009,-0.007
1,-1.934,1.004,0.566,-0.075,-0.014,-0.026,-0.044,0.148,0.066,0.002,0.011,-0.006
1,-1.934,1.004,0.566,-0.074,-0.014,-0.026,-0.048,0.151,0.072,0.002,0.012,-0.002
1,-1.934,1.004,0.566,-0.075,-0.014,-0.025,-0.065,0.157,0.074,0.001,0.013,-0.001
1,-1.933,1.004,0.566,-0.076,-0.014,-0.025,-0.057,0.177,0.099,0.001,0.013,-0.001
1,-1.933,1.004,0.565,-0.075,-0.014,-0.024,-0.057,0.177,0.099,0.0,0.013,0.0
1,-1.933,1.004,0.565,-0.071,-0.014,-0.023,-0.059,0.124,0.002,0.002,0.015,0.002
1,-1.932,1.003,0.565,-0.07,-0.015,-0.023,-0.077,0.108,-0.029,0.004,0.016,0.004
1,-1.932,1.003,0.564,-0.069,-0.015,-0.023,-0.116,0.098,-0.061,0.004,0.017,0.006
1,-1.932,1.003,0.564,-0.068,-0.015,-0.024,-0.125,0.098,-0.05,0.003,0.017,0.007
1,-1.932,1.003,0.564,-0.067,-0.014,-0.025,-0.125,0.098,-0.05,0.002,0.018,0.008
1,-1.932,1.003,0.564,-0.066,-0.014,-0.025,-0.132,0.153,0.057,0.0,0.018,0.011
1,-1.931,1.003,0.564,-0.068,-0.014,-0.025,-0.164,0.154,0.14,0.0,0.019,0.013
1,-1.931,1.003,0.563,-0.066,-0.014,-0.024,-0.13,0.148,0.134,0.0,0.019,0.013
1,-1.931,1.003,0.563,-0.065,-0.014,-0.023,-0.159,0.202,0.098,-0.001,0.019,0.016
1,-1.931,1.003,0.563,-0.064,-0.014,-0.022,-0.179,0.196,0.055,-0.003,0.018,0.017
1,-1.93,1.003,0.562,-0.066,-0.013,-0.021,-0.15,0.201,0.048,-0.003,0.018,0.017
1,-1.929,1.003,0.562,-0.065,-0.012,-0.021,-0.113,0.218,0.069,-0.005,0.018,0.018
1,-1.929,1.002,0.562,-0.064,-0.012,-0.02,-0.113,0.218,0.069,-0.006,0.018,0.02
1,-1.929,1.002,0.562,-0.064,-0.011,-0.02,-0.164,0.158,0.075,-0.002,0.02,0.023
1,-1.928,1.002,0.562,-0.066,-0.011,-0.019,-0.164,0.158,0.075,-0.002,0.02,0.023
1,-1.928,1.002,0.562,-0.064,-0.01,-0.018,-0.173,0.168,0.112,-0.002,0.02,0.024
1,-1.928,1.003,0.561,-0.062,-0.01,-0.017,-0.164,0.108,0.164,-0.001,0.019,0.024
1,-1.927,1.003,0.561,-0.06,-0.008,-0.015,-0.142,0.112,0.081,-0.001,0.019,0.026
1,-1.927,1.003,0.561,-0.058,-0.008,-0.014,-0.142,0.112,0.081,0.001,0.018,0.028
1,-1.926,1.002,0.56,-0.052,-0.008,-0.015,-0.153,0.123,0.017,0.003,0.017,0.029
1,-1.926,1.003,0.56,-0.052,-0.008,-0.015,-0.096,0.113,0.036,0.003,0.015,0.03
1,-1.925,1.003,0.56,-0.051,-0.008,-0.015,-0.092,0.114,0.071,0.004,0.014,0.031
1,-1.925,1.003,0.56,-0.049,-0.009,-0.014,-0.085,0.091,0.084,0.005,0.012,0.032
1,-1.924,1.003,0.56,-0.05,-0.009,-0.014,-0.085,0.091,0.084,0.007,0.01,0.032
1,-1.924,1.003,0.56,-0.048,-0.01,-0.013,-0.054,0.061,0.103,0.009,0.009,0.034
1,-1.924,1.003,0.559,-0.045,-0.012,-0.012,-0.023,0.057,0.085,0.014,0.008,0.035
1,-1.923,1.003,0.559,-0.043,-0.013,-0.012,-0.024,0.026,0.04,0.016,0.006,0.036
1,-1.923,1.003,0.559,-0.04,-0.014,-0.012,0.001,-0.034,-0.044,0.018,0.005,0.037
1,-1.923,1.003,0.559,-0.04,-0.015,-0.012,0.009,-0.093,-0.02,0.02,0.003,0.038
1,-1.921,1.002,0.559,-0.04,-0.015,-0.012,0.009,-0.093,-0.02,0.024,0.002,0.039
1,-1.92,1.002,0.559,-0.033,-0.019,-0.013,0.044,-0.111,0.086,0.026,0.0,0.04
1,-1.92,1.002,0.558,-0.03,-0.023,-0.012,0.036,-0.11,0.129,0.03,-0.002,0.04
1,-1.92,1.002,0.558,-0.026,-0.025,-0.011,0.119,-0.191,0.026,0.032,-0.004,0.041
1,-1.919,1.002,0.558,-0.023,-0.028,-0.011,0.119,-0.191,0.026,0.036,-0.007,0.042
1,-1.919,1.002,0.558,-0.019,-0.032,-0.011,0.189,-0.201,-0.028,0.039,-0.01,0.043
1,-1.919,1.002,0.558,-0.018,-0.036,-0.012,0.135,-0.233,-0.002,0.042,-0.012,0.044
1,-1.919,1.002,0.558,-0.017,-0.04,-0.012,0.154,-0.258,0.065,0.044,-0.014,0.044
1,-1.919,1.002,0.558,-0.015,-0.044,-0.011,0.193,-0.269,0.083,0.044,-0.014,0.044
1,-1.919,1.002,0.558,-0.013,-0.049,-0.011,0.199,-0.284,0.045,0.048,-0.017,0.045
1,-1.919,1.002,0.558,-0.011,-0.054,-0.01,0.226,-0.316,0.023,0.051,-0.019,0.045
1,-1.913,0.999,0.557,-0.009,-0.059,-0.01,0.226,-0.316,0.023,0.051,-0.019,0.045
1,-1.912,0.999,0.557,-0.001,-0.065,-0.01,0.237,-0.349,0.011,0.053,-0.022,0.046
1,-1.911,0.998,0.557,0.007,-0.07,-0.011,0.308,-0.437,0.004,0.058,-0.025,0.046
1,-1.911,0.998,0.557,0.015,-0.076,-0.011,0.339,-0.482,0.022,0.066,-0.031,0.046
1,-1.911,0.998,0.557,0.018,-0.082,-0.011,0.407,-0.514,0.01,0.069,-0.034,0.046
1,-1.911,0.998,0.557,0.022,-0.089,-0.011,0.425,-0.536,-0.055,0.073,-0.038,0.046
1,-1.906,0.995,0.556,0.026,-0.096,-0.012,0.427,-0.535,-0.044,0.073,-0.038,0.046
1,-1.905,0.995,0.556,0.036,-0.103,-0.013,0.452,-0.543,-0.036,0.076,-0.041,0.046
1,-1.905,0.995,0.556,0.047,-0.109,-0.014,0.459,-0.539,-0.077,0.079,-0.044,0.046
1,-1.905,0.995,0.556,0.052,-0.117,-0.015,0.504,-0.596,-0.048,0.084,-0.05,0.046
1,-1.9,0.991,0.555,0.057,-0.125,-0.016,0.521,-0.657,-0.013,0.087,-0.052,0.045
1,-1.899,0.99,0.555,0.069,-0.134,-0.017,0.562,-0.72,0.016,0.09,-0.056,0.044
1,-1.897,0.989,0.555,0.081,-0.14,-0.017,0.61,-0.741,0.038,0.09,-0.056,0.044
1,-1.896,0.988,0.554,0.093,-0.148,-0.018,0.616,-0.728,0.007,0.096,-0.062,0.043
1,-1.892,0.986,0.554,0.103,-0.157,-0.018,0.583,-0.698,-0.043,0.096,-0.062,0.043
1,-1.891,0.985,0.554,0.118,-0.167,-0.019,0.583,-0.698,-0.043,0.102,-0.067,0.042
1,-1.889,0.983,0.553,0.129,-0.176,-0.02,0.627,-0.733,-0.063,0.102,-0.067,0.042
1,-1.887,0.982,0.553,0.14,-0.184,-0.022,0.675,-0.797,-0.054,0.104,-0.069,0.041
1,-1.885,0.98,0.553,0.15,-0.194,-0.023,0.698,-0.794,-0.04,0.106,-0.072,0.039
1,-1.882,0.977,0.553,0.161,-0.203,-0.024,0.723,-0.819,-0.034,0.106,-0.072,0.039
1,-1.88,0.976,0.553,0.173,-0.213,-0.024,0.715,-0.838,0.002,0.111,-0.075,0.037
1,-1.878,0.974,0.552,0.184,-0.223,-0.025,0.697,-0.818,0.003,0.114,-0.077,0.036
1,-1.876,0.972,0.552,0.194,-0.233,-0.025,0.701,-0.915,0.005,0.118,-0.078,0.035
1,-1.873,0.97,0.552,0.205,-0.244,-0.026,0.75,-0.94,-0.003,0.121,-0.08,0.034
1,-1.869,0.966,0.551,0.215,-0.255,-0.026,0.731,-0.978,-0.014,0.121,-0.08,0.034
1,-1.866,0.964,0.551,0.227,-0.267,-0.027,0.75,-0.995,-0.045,0.128,-0.083,0.033
1,-1.864,0.962,0.551,0.238,-0.278,-0.028,0.789,-0.991,-0.064,0.13,-0.084,0.031
1,-1.861,0.96,0.55,0.249,-0.29,-0.029,0.803,-0.992,-0.064,0.13,-0.084,0.031
1,-1.859,0.957,0.55,0.259,-0.302,-0.03,0.783,-1.021,-0.068,0.136,-0.087,0.029
1,-1.854,0.953,0.549,0.269,-0.315,-0.031,0.823,-1.069,-0.081,0.136,-0.087,0.029
1,-1.851,0.95,0.549,0.282,-0.327,-0.033,0.846,-1.083,-0.041,0.141,-0.092,0.027
1,-1.848,0.947,0.549,0.293,-0.341,-0.034,0.856,-1.107,-0.037,0.145,-0.095,0.025
1,-1.844,0.945,0.549,0.305,-0.354,-0.035,0.94,-1.145,-0.086,0.147,-0.098,0.024
1,-1.839,0.939,0.548,0.316,-0.37,-0.036,0.946,-1.16,0.009,0.147,-0.098,0.024
1,-1.835,0.936,0.548,0.33,-0.383,-0.037,0.931,-1.153,0.012,0.152,-0.103,0.02
1,-1.832,0.933,0.548,0.341,-0.399,-0.038,0.924,-1.166,-0.01,0.154,-0.104,0.018
1,-1.829,0.929,0.547,0.354,-0.414,-0.038,0.891,-1.159,-0.012,0.155,-0.105,0.017
1,-1.826,0.926,0.547,0.366,-0.428,-0.039,0.949,-1.203,-0.009,0.155,-0.106,0.015
1,-1.822,0.923,0.547,0.378,-0.442,-0.04,0.931,-1.155,0.024,0.154,-0.106,0.013
1,-1.814,0.916,0.546,0.389,-0.457,-0.04,0.903,-1.197,0.058,0.154,-0.106,0.013
1,-1.811,0.912,0.546,0.404,-0.473,-0.041,0.964,-1.225,0.106,0.156,-0.106,0.01
1,-1.807,0.908,0.545,0.415,-0.489,-0.04,0.91,-1.227,0.076,0.158,-0.105,0.008
1,-1.803,0.904,0.545,0.427,-0.505,-0.04,0.906,-1.209,0.062,0.158,-0.105,0.008
1,-1.799,0.9,0.545,0.438,-0.521,-0.04,0.962,-1.288,0.071,0.161,-0.106,0.004
1,-1.791,0.892,0.544,0.448,-0.537,-0.04,0.97,-1.278,0.005,0.163,-0.107,0.003
1,-1.787,0.888,0.544,0.463,-0.551,-0.04,0.976,-1.302,0.024,0.163,-0.107,0.003
1,-1.783,0.884,0.544,0.474,-0.567,-0.04,0.942,-1.255,0.042,0.163,-0.108,-0.0
1,-1.778,0.879,0.543,0.486,-0.583,-0.041,0.911,-1.223,0.121,0.163,-0.109,-0.002
1,-1.774,0.875,0.543,0.497,-0.599,-0.04,0.899,-1.251,0.125,0.163,-0.109,-0.004
1,-1.765,0.865,0.543,0.508,-0.615,-0.04,0.931,-1.3,0.089,0.163,-0.109,-0.004
1,-1.76,0.86,0.542,0.522,-0.63,-0.039,0.896,-1.271,0.122,0.164,-0.109,-0.008
1,-1.755,0.855,0.542,0.534,-0.646,-0.039,0.898,-1.244,0.084,0.164,-0.11,-0.009
1,-1.75,0.85,0.542,0.545,-0.662,-0.039,0.892,-1.285,0.05,0.164,-0.11,-0.009
1,-1.746,0.845,0.542,0.558,-0.678,-0.039,0.889,-1.297,0.037,0.166,-0.111,-0.012
1,-1.736,0.835,0.541,0.569,-0.694,-0.039,0.878,-1.259,0.036,0.166,-0.111,-0.012
1,-1.731,0.829,0.541,0.581,-0.709,-0.039,0.892,-1.28,0.008,0.167,-0.11,-0.015
1,-1.725,0.824,0.54,0.594,-0.724,-0.04,0.869,-1.251,0.039,0.165,-0.109,-0.016
1,-1.72,0.818,0.54,0.605,-0.74,-0.04,0.8,-1.213,0.048,0.164,-0.107,-0.018
1,-1.715,0.812,0.54,0.616,-0.756,-0.04,0.778,-1.216,0.069,0.161,-0.104,-0.019
1,-1.704,0.801,0.54,0.628,-0.77,-0.04,0.756,-1.171,0.1,0.161,-0.104,-0.019
1,-1.698,0.795,0.54,0.64,-0.784,-0.04,0.675,-1.112,0.144,0.155,-0.1,-0.021
1,-1.693,0.788,0.539,0.65,-0.8,-0.039,0.632,-1.083,0.162,0.152,-0.097,-0.023
1,-1.687,0.782,0.539,0.66,-0.816,-0.039,0.612,-1.085,0.178,0.15,-0.094,-0.023
1,-1.681,0.776,0.539,0.669,-0.831,-0.038,0.621,-1.015,0.184,0.147,-0.092,-0.024
1,-1.67,0.763,0.539,0.679,-0.845,-0.037,0.657,-0.975,0.171,0.147,-0.092,-0.024
1,-1.664,0.757,0.539,0.69,-0.858,-0.036,0.57,-0.961,0.198,0.14,-0.09,-0.025
1,-1.658,0.75,0.538,0.7,-0.872,-0.035,0.559,-0.89,0.203,0.136,-0.089,-0.025
1,-1.651,0.743,0.538,0.709,-0.885,-0.034,0.516,-0.837,0.243,0.131,-0.085,-0.026
1,-1.646,0.737,0.538,0.718,-0.896,-0.031,0.5,-0.829,0.278,0.126,-0.083,-0.026
1,-1.633,0.724,0.538,0.727,-0.908,-0.029,0.5,-0.829,0.278,0.126,-0.083,-0.026
1,-1.627,0.716,0.538,0.735,-0.918,-0.026,0.459,-0.737,0.357,0.119,-0.078,-0.026
1,-1.621,0.709,0.537,0.744,-0.928,-0.022,0.422,-0.713,0.367,0.115,-0.076,-0.027
1,-1.615,0.703,0.538,0.752,-0.939,-0.019,0.385,-0.639,0.394,0.112,-0.074,-0.027
1,-1.608,0.695,0.538,0.76,-0.949,-0.016,0.382,-0.648,0.367,0.109,-0.073,-0.027
1,-1.595,0.681,0.538,0.768,-0.958,-0.013,0.405,-0.543,0.383,0.109,-0.073,-0.027
1,-1.589,0.674,0.538,0.776,-0.966,-0.009,0.369,-0.532,0.394,0.105,-0.072,-0.027
1,-1.582,0.667,0.538,0.784,-0.974,-0.004,0.315,-0.474,0.367,0.094,-0.068,-0.029
1,-1.576,0.66,0.539,0.79,-0.982,-0.0,0.275,-0.394,0.322,0.089,-0.063,-0.029
1,-1.57,0.652,0.539,0.797,-0.989,0.003,0.28,-0.34,0.412,0.083,-0.06,-0.029
1,-1.556,0.638,0.539,0.804,-0.996,0.006,0.253,-0.244,0.378,0.083,-0.06,-0.029
1,-1.55,0.63,0.539,0.809,-1.0,0.011,0.215,-0.21,0.446,0.075,-0.053,-0.027
1,-1.543,0.623,0.539,0.816,-1.006,0.015,0.187,-0.156,0.435,0.071,-0.051,-0.027
1,-1.536,0.615,0.54,0.82,-1.012,0.02,0.151,-0.127,0.368,0.068,-0.048,-0.027
1,-1.53,0.608,0.54,0.826,-1.016,0.024,0.103,-0.061,0.383,0.064,-0.047,-0.027
1,-1.516,0.593,0.541,0.83,-1.021,0.027,0.088,-0.057,0.33,0.064,-0.047,-0.027
1,-1.509,0.585,0.541,0.833,-1.023,0.031,0.095,-0.02,0.274,0.06,-0.042,-0.026
1,-1.502,0.578,0.542,0.838,-1.027,0.034,0.068,0.042,0.283,0.056,-0.04,-0.026
1,-1.496,0.57,0.542,0.843,-1.03,0.037,0.045,0.12,0.244,0.052,-0.038,-0.025
1,-1.488,0.563,0.542,0.847,-1.032,0.039,0.018,0.099,0.182,0.048,-0.037,-0.024
1,-1.475,0.548,0.543,0.85,-1.034,0.041,-0.018,0.157,0.153,0.048,-0.037,-0.024
1,-1.468,0.54,0.544,0.852,-1.034,0.043,-0.037,0.166,0.135,0.043,-0.032,-0.024
1,-1.461,0.533,0.544,0.855,-1.036,0.045,-0.078,0.221,0.182,0.041,-0.031,-0.023
1,-1.454,0.525,0.544,0.858,-1.038,0.047,-0.102,0.218,0.15,0.039,-0.03,-0.022
1,-1.447,0.518,0.545,0.86,-1.038,0.049,-0.116,0.256,0.02,0.037,-0.03,-0.021
1,-1.434,0.503,0.546,0.863,-1.04,0.048,-0.03,0.263,-0.017,0.037,-0.03,-0.021
1,-1.426,0.496,0.546,0.866,-1.037,0.049,-0.079,0.263,-0.004,0.036,-0.03,-0.02
1,-1.42,0.489,0.547,0.868,-1.037,0.05,-0.124,0.306,-0.029,0.032,-0.029,-0.019
1,-1.413,0.481,0.548,0.871,-1.036,0.05,-0.091,0.383,-0.024,0.024,-0.026,-0.017
1,-1.406,0.473,0.548,0.875,-1.034,0.05,-0.116,0.421,0.019,0.019,-0.024,-0.015
1,-1.392,0.459,0.549,0.877,-1.032,0.05,-0.152,0.467,0.056,0.019,-0.024,-0.015
1,-1.385,0.451,0.549,0.877,-1.027,0.052,-0.151,0.485,0.053,0.011,-0.017,-0.013
1,-1.378,0.444,0.55,0.878,-1.025,0.053,-0.192,0.475,0.049,0.01,-0.014,-0.012
1,-1.371,0.437,0.55,0.879,-1.023,0.054,-0.221,0.455,0.064,0.01,-0.014,-0.012
1,-1.364,0.429,0.551,0.879,-1.021,0.055,-0.252,0.501,0.026,0.011,-0.01,-0.01
1,-1.35,0.415,0.552,0.879,-1.018,0.056,-0.225,0.489,-0.001,0.011,-0.01,-0.01
1,-1.343,0.408,0.552,0.879,-1.013,0.055,-0.258,0.48,-0.043,0.015,-0.007,-0.008
1,-1.336,0.401,0.553,0.879,-1.012,0.055,-0.239,0.489,-0.023,0.017,-0.005,-0.007
1,-1.329,0.394,0.553,0.88,-1.01,0.055,-0.297,0.465,0.052,0.017,-0.005,-0.007
1,-1.322,0.387,0.554,0.879,-1.009,0.055,-0.308,0.385,0.064,0.019,-0.006,-0.006
1,-1.308,0.373,0.555,0.879,-1.006,0.056,-0.263,0.391,0.077,0.021,-0.006,-0.005
1,-1.301,0.365,0.555,0.878,-1.001,0.057,-0.298,0.368,-0.02,0.02,-0.01,-0.003
1,-1.295,0.358,0.556,0.879,-1.0,0.057,-0.26,0.367,-0.062,0.02,-0.01,-0.003
1,-1.287,0.351,0.556,0.88,-0.998,0.056,-0.152,0.393,-0.052,0.02,-0.014,-0.002
1,-1.28,0.344,0.557,0.881,-0.997,0.055,-0.125,0.407,-0.062,0.02,-0.02,-0.001
1,-1.266,0.331,0.558,0.883,-0.994,0.055,-0.09,0.429,-0.071,0.02,-0.024,0.0
1,-1.26,0.324,0.558,0.883,-0.989,0.054,-0.078,0.397,-0.127,0.021,-0.031,0.003
1,-1.252,0.317,0.558,0.885,-0.988,0.053,-0.031,0.363,-0.163,0.021,-0.031,0.003
1,-1.246,0.31,0.559,0.887,-0.986,0.051,-0.017,0.408,-0.198,0.021,-0.032,0.004
1,-1.239,0.303,0.559,0.889,-0.985,0.049,-0.038,0.415,-0.244,0.023,-0.032,0.006
1,-1.224,0.289,0.56,0.89,-0.982,0.047,-0.039,0.442,-0.338,0.023,-0.032,0.006
1,-1.218,0.283,0.561,0.89,-0.977,0.043,-0.074,0.435,-0.394,0.028,-0.03,0.008
1,-1.21,0.276,0.561,0.892,-0.977,0.039,-0.068,0.342,-0.432,0.032,-0.029,0.01
1,-1.203,0.269,0.561,0.895,-0.976,0.035,-0.046,0.347,-0.36,0.034,-0.03,0.011
1,-1.189,0.256,0.562,0.895,-0.976,0.031,-0.043,0.334,-0.355,0.034,-0.03,0.011
1,-1.182,0.249,0.562,0.898,-0.971,0.027,-0.036,0.364,-0.333,0.038,-0.033,0.014
1,-1.175,0.242,0.562,0.9,-0.971,0.023,-0.009,0.4,-0.497,0.038,-0.033,0.014
1,-1.168,0.235,0.562,0.903,-0.97,0.018,-0.012,0.343,-0.578,0.039,-0.036,0.018
1,-1.161,0.229,0.562,0.905,-0.97,0.013,0.047,0.301,-0.511,0.039,-0.036,0.02
1,-1.153,0.222,0.562,0.908,-0.969,0.007,0.1,0.368,-0.385,0.038,-0.038,0.022
1,-1.139,0.209,0.563,0.91,-0.967,0.003,0.098,0.404,-0.338,0.038,-0.038,0.022
1,-1.132,0.202,0.562,0.911,-0.962,-0.001,0.12,0.42,-0.358,0.036,-0.039,0.028
1,-1.125,0.196,0.563,0.914,-0.961,-0.005,0.064,0.37,-0.319,0.034,-0.039,0.03
1,-1.117,0.189,0.562,0.916,-0.96,-0.008,0.069,0.43,-0.256,0.032,-0.038,0.033
1,-1.11,0.182,0.562,0.919,-0.958,-0.011,0.055,0.495,-0.167,0.03,-0.037,0.035
1,-1.095,0.169,0.562,0.921,-0.956,-0.013,0.083,0.472,-0.139,0.03,-0.037,0.035
1,-1.088,0.163,0.562,0.922,-0.951,-0.014,0.073,0.435,-0.186,0.029,-0.035,0.038
1,-1.08,0.156,0.562,0.924,-0.949,-0.016,-0.06,0.515,-0.267,0.027,-0.03,0.044
1,-1.073,0.15,0.562,0.926,-0.947,-0.019,-0.094,0.585,-0.3,0.026,-0.028,0.047
1,-1.066,0.143,0.562,0.927,-0.945,-0.022,-0.093,0.519,-0.259,0.025,-0.026,0.05
1,-1.05,0.13,0.562,0.928,-0.943,-0.025,-0.052,0.477,-0.172,0.025,-0.026,0.05
1,-1.043,0.124,0.561,0.927,-0.938,-0.027,-0.175,0.515,-0.255,0.023,-0.022,0.055
1,-1.036,0.118,0.561,0.93,-0.936,-0.03,-0.16,0.497,-0.257,0.022,-0.022,0.057
1,-1.029,0.112,0.561,0.93,-0.933,-0.033,-0.101,0.426,-0.124,0.022,-0.022,0.058
1,-1.021,0.105,0.56,0.931,-0.931,-0.034,-0.148,0.411,0.055,0.022,-0.022,0.06
1,-1.006,0.093,0.56,0.932,-0.928,-0.034,-0.241,0.387,0.103,0.022,-0.022,0.06
1,-0.999,0.087,0.56,0.933,-0.922,-0.033,-0.179,0.371,0.093,0.023,-0.025,0.062
1,-0.991,0.081,0.559,0.936,-0.92,-0.033,-0.049,0.375,0.063,0.024,-0.027,0.063
1,-0.983,0.075,0.559,0.938,-0.918,-0.032,-0.121,0.351,-0.022,0.026,-0.03,0.064
1,-0.976,0.068,0.558,0.939,-0.917,-0.033,-0.085,0.315,0.013,0.029,-0.032,0.065
1,-0.961,0.056,0.558,0.941,-0.915,-0.034,0.014,0.312,0.075,0.029,-0.032,0.065
1,-0.954,0.051,0.558,0.944,-0.91,-0.035,-0.002,0.276,0.09,0.035,-0.041,0.066
1,-0.946,0.044,0.558,0.948,-0.91,-0.035,0.002,0.32,-0.01,0.039,-0.045,0.067
1,-0.939,0.038,0.557,0.952,-0.909,-0.035,0.103,0.214,-0.12,0.043,-0.049,0.067
1,-0.923,0.026,0.557,0.955,-0.909,-0.037,0.2,0.127,-0.088,0.043,-0.049,0.067
1,-0.916,0.02,0.556,0.959,-0.908,-0.04,0.154,0.195,-0.016,0.047,-0.053,0.068
1,-0.908,0.015,0.556,0.964,-0.908,-0.04,0.147,0.192,0.015,0.055,-0.058,0.069
1,-0.9,0.008,0.556,0.97,-0.91,-0.042,0.274,0.12,0.058,0.055,-0.058,0.069
1,-0.893,0.003,0.556,0.975,-0.913,-0.043,0.169,0.115,0.001,0.062,-0.059,0.071
1,-0.885,-0.003,0.555,0.98,-0.915,-0.044,0.1,0.14,-0.078,0.065,-0.058,0.072
1,-0.869,-0.016,0.555,0.985,-0.917,-0.047,0.159,0.03,-0.104,0.065,-0.058,0.072
1,-0.861,-0.021,0.555,0.99,-0.915,-0.049,0.183,-0.035,0.03,0.067,-0.055,0.073
1,-0.853,-0.027,0.555,0.995,-0.918,-0.049,0.125,-0.001,0.093,0.067,-0.052,0.074
1,-0.846,-0.034,0.554,1.0,-0.92,-0.049,0.048,0.029,0.059,0.065,-0.05,0.075
1,-0.83,-0.045,0.553,1.004,-0.92,-0.049,0.025,0.019,0.021,0.065,-0.05,0.075
1,-0.821,-0.051,0.553,1.008,-0.917,-0.048,0.034,0.114,-0.039,0.06,-0.043,0.077
1,-0.813,-0.057,0.553,1.011,-0.919,-0.049,-0.005,0.08,0.076,0.059,-0.04,0.076
1,-0.806,-0.063,0.553,1.015,-0.922,-0.049,-0.043,0.132,0.17,0.059,-0.037,0.076
1,-0.797,-0.07,0.552,1.018,-0.923,-0.049,-0.047,0.068,0.142,0.061,-0.035,0.076
1,-0.789,-0.075,0.552,1.02,-0.925,-0.047,-0.176,-0.036,0.119,0.063,-0.031,0.075
1,-0.773,-0.087,0.552,1.022,-0.926,-0.047,-0.266,0.02,0.134,0.064,-0.03,0.075
1,-0.766,-0.093,0.551,1.022,-0.923,-0.047,-0.248,0.07,0.052,0.067,-0.028,0.075
1,-0.757,-0.099,0.551,1.025,-0.925,-0.046,-0.157,0.08,0.011,0.067,-0.026,0.076
1,-0.749,-0.105,0.551,1.025,-0.929,-0.047,-0.077,0.115,-0.102,0.067,-0.023,0.076
1,-0.741,-0.111,0.551,1.027,-0.93,-0.048,-0.042,0.122,-0.125,0.064,-0.021,0.076
1,-0.725,-0.123,0.55,1.028,-0.931,-0.05,-0.142,0.103,-0.082,0.064,-0.021,0.076
1,-0.717,-0.129,0.55,1.028,-0.927,-0.051,-0.172,0.209,0.053,0.056,-0.016,0.078
1,-0.709,-0.134,0.55,1.029,-0.928,-0.051,-0.201,0.278,0.249,0.056,-0.016,0.078
1,-0.701,-0.141,0.55,1.03,-0.927,-0.048,-0.202,0.29,0.289,0.042,-0.012,0.08
1,-0.693,-0.146,0.55,1.029,-0.926,-0.045,-0.238,0.427,0.31,0.036,-0.01,0.081
1,-0.677,-0.158,0.549,1.03,-0.924,-0.043,-0.241,0.516,0.237,0.036,-0.01,0.081
1,-0.668,-0.164,0.549,1.029,-0.916,-0.039,-0.205,0.468,0.117,0.027,-0.01,0.086
1,-0.661,-0.169,0.548,1.028,-0.914,-0.038,-0.209,0.475,0.139,0.026,-0.01,0.087
1,-0.653,-0.175,0.549,1.028,-0.912,-0.036,-0.307,0.497,0.237,0.025,-0.012,0.087
1,-0.644,-0.181,0.548,1.028,-0.909,-0.035,-0.29,0.464,0.123,0.028,-0.014,0.089
1,-0.628,-0.192,0.548,1.027,-0.907,-0.033,-0.257,0.392,0.15,0.031,-0.015,0.09
1,-0.62,-0.198,0.547,1.024,-0.9,-0.031,-0.252,0.49,0.019,0.035,-0.016,0.09
1,-0.612,-0.202,0.548,1.025,-0.897,-0.031,-0.231,0.352,-0.124,0.041,-0.016,0.092
1,-0.604,-0.208,0.547,1.026,-0.896,-0.033,-0.257,0.276,-0.156,0.048,-0.016,0.094
1,-0.588,-0.219,0.547,1.027,-0.893,-0.034,-0.272,0.268,-0.058,0.053,-0.015,0.095
1,-0.58,-0.224,0.547,1.027,-0.889,-0.035,-0.2,0.148,-0.001,0.06,-0.014,0.096
1,-0.572,-0.23,0.547,1.029,-0.89,-0.036,-0.179,0.067,0.085,0.065,-0.012,0.097
1,-0.564,-0.235,0.547,1.03,-0.89,-0.035,-0.245,0.068,-0.002,0.068,-0.01,0.098
1,-0.556,-0.241,0.547,1.03,-0.892,-0.035,-0.301,0.019,0.042,0.07,-0.008,0.099
1,-0.548,-0.246,0.547,1.029,-0.893,-0.035,-0.256,0.061,0.139,0.07,-0.008,0.099
1,-0.532,-0.257,0.547,1.028,-0.895,-0.034,-0.249,0.099,0.039,0.07,-0.005,0.099
1,-0.524,-0.262,0.546,1.026,-0.892,-0.034,-0.31,0.015,-0.037,0.07,-0.003,0.098
1,-0.515,-0.268,0.546,1.026,-0.892,-0.034,-0.378,-0.061,0.056,0.066,-0.001,0.099
1,-0.507,-0.273,0.546,1.025,-0.894,-0.034,-0.394,0.046,0.084,0.061,0.001,0.099
1,-0.499,-0.278,0.546,1.023,-0.894,-0.032,-0.358,0.151,0.061,0.055,0.003,0.1
1,-0.483,-0.289,0.546,1.021,-0.893,-0.031,-0.354,0.294,-0.017,0.049,0.003,0.101
1,-0.475,-0.294,0.546,1.017,-0.887,-0.03,-0.356,0.214,0.098,0.044,0.003,0.102
1,-0.468,-0.3,0.546,1.015,-0.887,-0.029,-0.299,0.191,0.238,0.044,0.003,0.102
1,-0.46,-0.305,0.545,1.014,-0.885,-0.027,-0.296,0.224,0.284,0.037,0.001,0.105
1,-0.452,-0.31,0.545,1.012,-0.883,-0.024,-0.385,0.347,0.098,0.035,-0.0,0.107
1,-0.436,-0.321,0.545,1.009,-0.88,-0.022,-0.276,0.413,0.043,0.034,-0.002,0.109
1,-0.428,-0.325,0.545,1.006,-0.872,-0.021,-0.204,0.474,0.165,0.035,-0.006,0.11
1,-0.421,-0.33,0.545,1.007,-0.869,-0.02,-0.167,0.538,0.041,0.036,-0.01,0.112
1,-0.412,-0.336,0.545,1.008,-0.866,-0.02,-0.034,0.522,0.026,0.039,-0.013,0.115
1,-0.404,-0.341,0.545,1.008,-0.864,-0.02,-0.107,0.595,-0.089,0.042,-0.017,0.118
1,-0.388,-0.35,0.545,1.008,-0.861,-0.021,0.019,0.365,0.047,0.045,-0.019,0.12
1,-0.38,-0.355,0.545,1.009,-0.852,-0.021,-0.013,0.427,0.036,0.045,-0.019,0.12
1,-0.372,-0.36,0.544,1.01,-0.85,-0.021,0.054,0.383,0.067,0.051,-0.022,0.125
1,-0.364,-0.365,0.545,1.011,-0.849,-0.019,-0.046,0.258,0.212,0.053,-0.021,0.127
1,-0.356,-0.37,0.545,1.012,-0.847,-0.017,0.004,0.194,0.181,0.055,-0.019,0.128
1,-0.341,-0.379,0.544,1.013,-0.846,-0.016,-0.139,0.271,0.074,0.057,-0.017,0.129
1,-0.332,-0.384,0.545,1.012,-0.837,-0.015,-0.093,0.255,-0.006,0.057,-0.013,0.13
1,-0.324,-0.388,0.545,1.013,-0.837,-0.015,-0.03,0.164,0.065,0.058,-0.009,0.131
1,-0.316,-0.393,0.545,1.014,-0.836,-0.015,-0.19,0.148,0.056,0.059,-0.005,0.132
1,-0.3,-0.402,0.545,1.013,-0.836,-0.014,-0.284,-0.017,0.06,0.06,-0.001,0.133
1,-0.292,-0.407,0.544,1.012,-0.827,-0.014,-0.477,0.135,0.023,0.06,-0.001,0.133
1,-0.284,-0.412,0.545,1.012,-0.826,-0.013,-0.379,-0.05,0.053,0.06,0.002,0.135
1,-0.276,-0.416,0.545,1.012,-0.825,-0.012,-0.447,-0.002,-0.006,0.059,0.007,0.137
1,-0.268,-0.421,0.545,1.011,-0.824,-0.013,-0.501,0.052,-0.121,0.06,0.007,0.137
1,-0.26,-0.426,0.545,1.009,-0.823,-0.014,-0.391,-0.07,-0.091,0.06,0.007,0.137
1,-0.244,-0.435,0.544,1.007,-0.823,-0.015,-0.448,0.072,-0.269,0.062,0.006,0.138
1,-0.236,-0.439,0.545,1.006,-0.812,-0.017,-0.258,-0.083,-0.191,0.064,0.001,0.14
1,-0.228,-0.444,0.545,1.006,-0.81,-0.019,-0.325,0.092,-0.091,0.066,-0.002,0.141
1,-0.22,-0.448,0.545,1.006,-0.811,-0.021,-0.352,0.04,-0.19,0.07,-0.005,0.141
1,-0.212,-0.453,0.545,1.006,-0.81,-0.023,-0.198,-0.035,-0.269,0.07,-0.005,0.141
1,-0.197,-0.462,0.544,1.005,-0.811,-0.026,-0.146,-0.1,-0.343,0.081,-0.01,0.141
1,-0.189,-0.466,0.544,1.005,-0.804,-0.03,-0.074,-0.171,-0.29,0.086,-0.013,0.141
1,-0.181,-0.471,0.544,1.006,-0.806,-0.033,-0.105,-0.146,-0.191,0.094,-0.014,0.141
1,-0.172,-0.476,0.544,1.007,-0.806,-0.035,-0.027,-0.359,-0.107,0.1,-0.015,0.141
1,-0.165,-0.481,0.544,1.008,-0.809,-0.037,0.067,-0.377,-0.173,0.106,-0.016,0.14
1,-0.149,-0.489,0.543,1.008,-0.812,-0.039,-0.079,-0.458,-0.141,0.106,-0.016,0.14
1,-0.141,-0.494,0.543,1.008,-0.807,-0.04,-0.04,-0.622,-0.136,0.116,-0.016,0.138
1,-0.133,-0.499,0.543,1.011,-0.81,-0.042,0.011,-0.615,-0.217,0.118,-0.015,0.137
1,-0.125,-0.503,0.542,1.012,-0.814,-0.045,-0.11,-0.725,-0.121,0.121,-0.014,0.135
1,-0.117,-0.508,0.542,1.014,-0.817,-0.047,-0.114,-0.674,-0.15,0.122,-0.011,0.133
1,-0.101,-0.518,0.542,1.015,-0.821,-0.048,-0.118,-0.635,-0.122,0.121,-0.009,0.13
1,-0.093,-0.523,0.542,1.013,-0.819,-0.049,-0.091,-0.773,0.034,0.119,-0.007,0.126
1,-0.085,-0.528,0.541,1.015,-0.823,-0.049,-0.215,-0.629,0.068,0.117,-0.006,0.122
1,-0.076,-0.533,0.541,1.015,-0.827,-0.048,-0.222,-0.614,0.127,0.114,-0.005,0.118
1,-0.068,-0.538,0.541,1.015,-0.832,-0.047,-0.246,-0.726,0.266,0.113,-0.005,0.113
1,-0.052,-0.548,0.541,1.014,-0.836,-0.044,-0.329,-0.743,0.225,0.112,-0.005,0.109
1,-0.044,-0.554,0.54,1.012,-0.834,-0.042,-0.358,-0.771,0.196,0.113,-0.006,0.104
1,-0.036,-0.559,0.54,1.013,-0.84,-0.04,-0.333,-0.805,0.218,0.115,-0.007,0.099
1,-0.028,-0.564,0.54,1.013,-0.845,-0.038,-0.347,-0.838,0.293,0.119,-0.008,0.095
1,-0.021,-0.569,0.54,1.013,-0.85,-0.035,-0.394,-0.818,0.198,0.122,-0.01,0.091
1,-0.004,-0.58,0.54,1.014,-0.854,-0.033,-0.407,-0.838,0.086,0.125,-0.012,0.089
1,0.003,-0.585,0.539,1.012,-0.855,-0.032,-0.341,-0.907,0.099,0.129,-0.013,0.085
1,0.011,-0.591,0.539,1.014,-0.861,-0.031,-0.299,-0.894,0.199,0.131,-0.016,0.082
1,0.019,-0.597,0.539,1.016,-0.868,-0.03,-0.279,-0.875,0.16,0.133,-0.018,0.079
1,0.027,-0.602,0.539,1.016,-0.875,-0.029,-0.226,-0.959,0.026,0.133,-0.02,0.075
1,0.043,-0.613,0.539,1.017,-0.882,-0.029,-0.253,-0.977,0.077,0.134,-0.021,0.072
1,0.051,-0.619,0.539,1.017,-0.883,-0.028,-0.231,-0.951,0.144,0.133,-0.023,0.069
1,0.059,-0.625,0.539,1.019,-0.89,-0.027,-0.201,-0.902,0.136,0.131,-0.024,0.066
1,0.067,-0.631,0.539,1.021,-0.896,-0.025,-0.2,-0.875,0.118,0.129,-0.025,0.064
1,0.075,-0.637,0.539,1.022,-0.903,-0.024,-0.173,-0.842,0.013,0.129,-0.025,0.064
1,0.091,-0.649,0.539,1.023,-0.91,-0.024,-0.179,-0.828,0.071,0.124,-0.024,0.058
1,0.099,-0.655,0.539,1.023,-0.91,-0.023,-0.194,-0.792,0.161,0.121,-0.024,0.056
1,0.107,-0.661,0.539,1.025,-0.917,-0.021,-0.203,-0.769,0.148,0.118,-0.025,0.054
1,0.115,-0.667,0.539,1.027,-0.923,-0.02,-0.219,-0.711,0.137,0.116,-0.026,0.051
1,0.122,-0.674,0.539,1.029,-0.928,-0.019,-0.226,-0.685,0.053,0.114,-0.027,0.05
1,0.139,-0.687,0.539,1.031,-0.933,-0.02,-0.164,-0.633,0.06,0.112,-0.029,0.048
1,0.147,-0.693,0.539,1.03,-0.933,-0.018,-0.155,-0.637,0.12,0.11,-0.03,0.046
1,0.155,-0.699,0.539,1.032,-0.94,-0.017,-0.136,-0.606,0.118,0.108,-0.031,0.043
1,0.163,-0.706,0.539,1.035,-0.945,-0.016,-0.153,-0.607,0.109,0.107,-0.032,0.041
1,0.171,-0.712,0.539,1.036,-0.951,-0.015,-0.106,-0.642,0.161,0.106,-0.033,0.038
1,0.187,-0.726,0.54,1.038,-0.955,-0.013,-0.098,-0.587,0.094,0.106,-0.033,0.036
1,0.195,-0.732,0.539,1.039,-0.956,-0.012,-0.112,-0.597,0.094,0.105,-0.033,0.034
1,0.203,-0.738,0.539,1.041,-0.961,-0.011,-0.089,-0.583,0.099,0.105,-0.034,0.032
1,0.211,-0.745,0.54,1.044,-0.966,-0.011,-0.101,-0.623,0.127,0.104,-0.034,0.03
1,0.219,-0.752,0.54,1.046,-0.971,-0.009,-0.179,-0.629,0.138,0.104,-0.035,0.028
1,0.235,-0.766,0.54,1.048,-0.976,-0.008,-0.162,-0.588,0.115,0.103,-0.036,0.026
1,0.243,-0.772,0.54,1.048,-0.976,-0.006,-0.172,-0.559,0.068,0.101,-0.036,0.024
1,0.251,-0.779,0.54,1.051,-0.982,-0.006,-0.145,-0.499,0.024,0.1,-0.037,0.022
1,0.259,-0.786,0.54,1.054,-0.987,-0.006,-0.113,-0.522,0.09,0.1,-0.037,0.022
1,0.267,-0.793,0.54,1.055,-0.991,-0.005,-0.138,-0.506,0.119,0.098,-0.037,0.02
1,0.284,-0.807,0.541,1.057,-0.995,-0.003,-0.129,-0.479,0.186,0.096,-0.036,0.019
1,0.292,-0.814,0.541,1.057,-0.995,-0.0,-0.168,-0.417,0.202,0.091,-0.035,0.016
1,0.3,-0.821,0.541,1.06,-0.999,0.002,-0.199,-0.42,0.091,0.089,-0.035,0.014
1,0.308,-0.828,0.541,1.062,-1.003,0.002,-0.194,-0.364,0.052,0.086,-0.035,0.012
1,0.324,-0.842,0.542,1.064,-1.006,0.003,-0.185,-0.383,0.027,0.086,-0.035,0.012
1,0.332,-0.85,0.542,1.064,-1.006,0.004,-0.157,-0.372,0.014,0.082,-0.035,0.01
1,0.34,-0.856,0.542,1.067,-1.01,0.004,-0.159,-0.363,0.013,0.081,-0.034,0.008
1,0.348,-0.864,0.542,1.069,-1.014,0.005,-0.204,-0.328,0.062,0.079,-0.034,0.007
1,0.357,-0.871,0.542,1.071,-1.017,0.005,-0.2,-0.288,0.066,0.078,-0.033,0.007
1,0.373,-0.885,0.543,1.072,-1.02,0.006,-0.201,-0.237,0.044,0.077,-0.032,0.006
1,0.381,-0.893,0.543,1.071,-1.02,0.007,-0.196,-0.26,-0.023,0.075,-0.031,0.005
1,0.389,-0.9,0.543,1.073,-1.024,0.007,-0.21,-0.23,0.006,0.074,-0.03,0.004
1,0.397,-0.907,0.543,1.075,-1.027,0.007,-0.202,-0.226,0.031,0.073,-0.029,0.003
1,0.406,-0.915,0.544,1.076,-1.03,0.007,-0.228,-0.248,0.076,0.072,-0.029,0.003
1,0.422,-0.929,0.544,1.076,-1.033,0.007,-0.258,-0.178,0.018,0.07,-0.028,0.002
1,0.43,-0.937,0.544,1.075,-1.032,0.008,-0.276,-0.194,-0.019,0.069,-0.027,0.001
1,0.438,-0.944,0.544,1.076,-1.035,0.008,-0.317,-0.233,-0.09,0.068,-0.026,-0.0
1,0.446,-0.951,0.544,1.077,-1.038,0.007,-0.307,-0.236,-0.061,0.066,-0.026,-0.001
1,0.454,-0.959,0.545,1.077,-1.041,0.006,-0.294,-0.187,-0.027,0.064,-0.026,-0.002
1,0.463,-0.966,0.545,1.077,-1.042,0.006,-0.288,-0.141,-0.046,0.061,-0.025,-0.002
1,0.479,-0.981,0.545,1.077,-1.044,0.005,-0.245,-0.047,-0.123,0.057,-0.025,-0.003
1,0.487,-0.989,0.546,1.075,-1.041,0.004,-0.231,-0.022,-0.151,0.054,-0.025,-0.004
1,0.495,-0.996,0.546,1.075,-1.043,0.003,-0.278,0.023,-0.067,0.049,-0.024,-0.005
1,0.503,-1.003,0.546,1.075,-1.045,0.003,-0.333,0.013,0.028,0.044,-0.024,-0.005
1,0.511,-1.011,0.546,1.074,-1.045,0.003,-0.33,0.114,-0.025,0.038,-0.023,-0.006
1,0.527,-1.026,0.546,1.073,-1.044,0.002,-0.371,0.238,-0.133,0.032,-0.022,-0.006
1,0.536,-1.033,0.547,1.071,-1.04,0.001,-0.302,0.249,-0.097,0.026,-0.022,-0.007
1,0.544,-1.041,0.547,1.071,-1.039,0.001,-0.313,0.304,-0.049,0.019,-0.021,-0.007
1,0.552,-1.048,0.547,1.071,-1.036,0.001,-0.346,0.34,0.008,0.013,-0.02,-0.007
1,0.56,-1.055,0.547,1.071,-1.033,0.002,-0.342,0.482,-0.035,0.005,-0.019,-0.007
1,0.576,-1.07,0.547,1.069,-1.029,0.002,-0.356,0.529,-0.047,-0.001,-0.018,-0.007
1,0.584,-1.077,0.547,1.067,-1.02,0.002,-0.346,0.591,-0.053,-0.008,-0.017,-0.007
1,0.592,-1.084,0.548,1.067,-1.016,0.002,-0.393,0.64,0.01,-0.015,-0.016,-0.007
1,0.6,-1.092,0.548,1.066,-1.011,0.003,-0.388,0.683,-0.016,-0.021,-0.014,-0.007
1,0.608,-1.099,0.548,1.064,-1.005,0.003,-0.417,0.715,-0.045,-0.026,-0.014,-0.007
1,0.624,-1.113,0.548,1.062,-0.999,0.003,-0.455,0.78,-0.129,-0.031,-0.012,-0.007
1,0.632,-1.12,0.548,1.058,-0.987,0.003,-0.416,0.829,-0.123,-0.038,-0.011,-0.007
1,0.64,-1.127,0.548,1.058,-0.98,0.002,-0.39,0.823,-0.003,-0.042,-0.011,-0.006
1,0.648,-1.134,0.548,1.056,-0.972,0.002,-0.405,0.975,-0.076,-0.047,-0.011,-0.006
1,0.664,-1.147,0.549,1.054,-0.964,0.002,-0.38,1.007,-0.161,-0.053,-0.011,-0.006
1,0.672,-1.154,0.549,1.05,-0.952,0.001,-0.391,0.992,-0.169,-0.058,-0.011,-0.007
1,0.679,-1.16,0.549,1.049,-0.944,0.001,-0.409,1.023,-0.108,-0.064,-0.011,-0.007
1,0.687,-1.167,0.549,1.047,-0.935,0.0,-0.41,1.136,-0.155,-0.068,-0.011,-0.007
1,0.695,-1.173,0.548,1.046,-0.924,-0.001,-0.423,1.153,-0.208,-0.072,-0.011,-0.007
1,0.703,-1.18,0.549,1.044,-0.912,-0.002,-0.385,1.173,-0.186,-0.076,-0.011,-0.007
1,0.718,-1.192,0.548,1.042,-0.9,-0.004,-0.356,1.185,-0.168,-0.08,-0.012,-0.006
1,0.726,-1.198,0.548,1.038,-0.884,-0.004,-0.414,1.238,-0.118,-0.086,-0.013,-0.006
1,0.734,-1.204,0.549,1.037,-0.872,-0.005,-0.402,1.291,-0.215,-0.091,-0.014,-0.006
1,0.742,-1.21,0.548,1.035,-0.86,-0.007,-0.344,1.303,-0.236,-0.095,-0.015,-0.006
1,0.749,-1.216,0.548,1.034,-0.847,-0.008,-0.332,1.328,-0.152,-0.1,-0.016,-0.006
1,0.764,-1.227,0.548,1.034,-0.847,-0.008,-0.332,1.328,-0.152,-0.1,-0.016,-0.006
1,0.772,-1.233,0.548,1.032,-0.832,-0.009,-0.352,1.421,-0.108,-0.104,-0.016,-0.005
1,0.78,-1.238,0.548,1.028,-0.799,-0.01,-0.375,1.527,-0.227,-0.112,-0.017,-0.004
1,0.788,-1.244,0.548,1.027,-0.784,-0.012,-0.324,1.487,-0.179,-0.116,-0.018,-0.004
1,0.795,-1.249,0.547,1.026,-0.769,-0.013,-0.302,1.504,-0.153,-0.116,-0.018,-0.004
1,0.811,-1.259,0.547,1.024,-0.753,-0.014,-0.327,1.577,-0.181,-0.122,-0.019,-0.003
1,0.818,-1.264,0.547,1.021,-0.732,-0.015,-0.284,1.643,-0.229,-0.125,-0.021,-0.004
1,0.826,-1.269,0.546,1.021,-0.716,-0.017,-0.27,1.664,-0.229,-0.127,-0.021,-0.003
1,0.833,-1.273,0.546,1.021,-0.716,-0.017,-0.27,1.664,-0.229,-0.127,-0.021,-0.003
1,0.841,-1.278,0.546,1.02,-0.683,-0.02,-0.234,1.671,-0.183,-0.127,-0.022,-0.003
1,0.856,-1.287,0.545,1.019,-0.667,-0.021,-0.256,1.602,-0.187,-0.126,-0.024,-0.003
1,0.864,-1.291,0.545,1.016,-0.647,-0.023,-0.238,1.533,-0.172,-0.125,-0.025,-0.003
1,0.871,-1.295,0.544,1.016,-0.631,-0.024,-0.243,1.527,-0.154,-0.124,-0.026,-0.003
1,0.879,-1.3,0.544,1.016,-0.614,-0.025,-0.272,1.519,-0.167,-0.124,-0.026,-0.002
1,0.886,-1.303,0.544,1.015,-0.598,-0.027,-0.181,1.534,-0.207,-0.124,-0.027,-0.003
1,0.902,-1.311,0.543,1.015,-0.582,-0.029,-0.132,1.522,-0.099,-0.123,-0.028,-0.003
1,0.909,-1.314,0.543,1.011,-0.562,-0.029,-0.241,1.486,-0.098,-0.123,-0.028,-0.002
1,0.917,-1.318,0.542,1.012,-0.546,-0.03,-0.233,1.466,-0.208,-0.122,-0.028,-0.002
1,0.924,-1.322,0.542,1.012,-0.531,-0.032,-0.187,1.425,-0.1,-0.121,-0.028,-0.002
1,0.932,-1.325,0.541,1.011,-0.515,-0.033,-0.221,1.428,-0.042,-0.12,-0.029,-0.002
1,0.947,-1.331,0.54,1.011,-0.499,-0.033,-0.238,1.458,-0.155,-0.119,-0.029,-0.002
1,0.955,-1.334,0.54,1.008,-0.479,-0.035,-0.191,1.393,-0.196,-0.118,-0.029,-0.002
1,0.962,-1.337,0.539,1.008,-0.464,-0.037,-0.184,1.372,-0.11,-0.117,-0.029,-0.002
1,0.97,-1.34,0.539,1.008,-0.448,-0.038,-0.193,1.403,-0.007,-0.115,-0.029,-0.003
1,0.977,-1.343,0.539,1.008,-0.433,-0.039,-0.207,1.388,-0.111,-0.113,-0.03,-0.003
1,0.992,-1.348,0.537,1.007,-0.419,-0.04,-0.162,1.383,-0.141,-0.111,-0.03,-0.003
1,1.0,-1.351,0.537,1.003,-0.4,-0.041,-0.169,1.287,0.004,-0.108,-0.03,-0.004
1,1.007,-1.353,0.536,1.004,-0.386,-0.041,-0.197,1.286,-0.036,-0.106,-0.03,-0.004
1,1.015,-1.355,0.536,1.004,-0.372,-0.042,-0.215,1.269,-0.089,-0.103,-0.031,-0.005
1,1.022,-1.357,0.535,1.004,-0.359,-0.043,-0.201,1.202,-0.045,-0.099,-0.032,-0.005
1,1.038,-1.362,0.534,1.004,-0.345,-0.044,-0.222,1.119,0.055,-0.096,-0.033,-0.006
1,1.045,-1.364,0.533,1.002,-0.328,-0.044,-0.191,1.099,-0.02,-0.093,-0.033,-0.006
1,1.053,-1.365,0.533,1.003,-0.316,-0.045,-0.16,1.099,-0.044,-0.089,-0.034,-0.007
1,1.06,-1.367,0.532,1.004,-0.304,-0.046,-0.142,1.02,0.079,-0.086,-0.035,-0.008
1,1.068,-1.369,0.532,1.004,-0.292,-0.046,-0.151,0.984,0.101,-0.082,-0.035,-0.008
1,1.083,-1.372,0.53,1.004,-0.281,-0.046,-0.172,0.95,-0.002,-0.079,-0.036,-0.009
1,1.091,-1.374,0.53,1.002,-0.267,-0.047,-0.13,0.921,0.052,-0.075,-0.036,-0.009
1,1.098,-1.375,0.529,1.003,-0.257,-0.047,-0.137,0.917,0.111,-0.072,-0.037,-0.01
1,1.105,-1.377,0.529,1.004,-0.248,-0.046,-0.127,0.876,0.129,-0.068,-0.037,-0.01
1,1.121,-1.38,0.528,1.005,-0.237,-0.046,-0.144,0.837,0.046,-0.065,-0.038,-0.01
1,1.128,-1.381,0.527,1.004,-0.225,-0.047,-0.103,0.751,0.029,-0.062,-0.038,-0.011
1,1.136,-1.382,0.527,1.006,-0.217,-0.047,-0.097,0.686,0.123,-0.059,-0.039,-0.012
1,1.143,-1.383,0.526,1.008,-0.209,-0.047,-0.076,0.718,0.132,-0.055,-0.039,-0.012
1,1.151,-1.384,0.525,1.009,-0.2,-0.047,-0.167,0.67,0.098,-0.052,-0.039,-0.012
1,1.159,-1.385,0.525,1.01,-0.192,-0.046,-0.096,0.667,0.048,-0.049,-0.039,-0.012
1,1.174,-1.387,0.524,1.011,-0.185,-0.047,-0.085,0.629,0.136,-0.046,-0.039,-0.013
1,1.181,-1.388,0.524,1.009,-0.174,-0.046,-0.085,0.629,0.136,-0.046,-0.039,-0.013
1,1.189,-1.389,0.523,1.011,-0.168,-0.045,-0.136,0.591,0.111,-0.04,-0.039,-0.013
1,1.197,-1.39,0.522,1.013,-0.162,-0.045,-0.119,0.489,0.089,-0.037,-0.039,-0.014
1,1.204,-1.39,0.522,1.014,-0.156,-0.045,-0.07,0.435,0.147,-0.034,-0.04,-0.014
1,1.22,-1.392,0.521,1.015,-0.151,-0.044,-0.093,0.467,0.218,-0.031,-0.04,-0.015
1,1.227,-1.393,0.521,1.015,-0.143,-0.044,-0.08,0.441,0.147,-0.027,-0.04,-0.015
1,1.235,-1.393,0.52,1.016,-0.138,-0.043,-0.061,0.359,0.141,-0.024,-0.04,-0.015
1,1.243,-1.394,0.52,1.018,-0.134,-0.042,-0.052,0.313,0.178,-0.021,-0.041,-0.015
1,1.251,-1.395,0.519,1.02,-0.13,-0.041,-0.085,0.328,0.255,-0.017,-0.041,-0.016
1,1.266,-1.396,0.518,1.021,-0.126,-0.039,-0.124,0.272,0.2,-0.014,-0.041,-0.016
1,1.274,-1.396,0.518,1.02,-0.121,-0.039,-0.11,0.228,0.128,-0.011,-0.041,-0.016
1,1.281,-1.397,0.518,1.022,-0.118,-0.038,-0.094,0.178,0.164,-0.008,-0.041,-0.016
1,1.289,-1.398,0.517,1.024,-0.116,-0.037,-0.083,0.174,0.203,-0.006,-0.041,-0.016
1,1.297,-1.398,0.517,1.026,-0.113,-0.036,-0.081,0.146,0.193,-0.003,-0.04,-0.017
1,1.312,-1.399,0.516,1.027,-0.111,-0.035,-0.095,0.187,0.079,-0.001,-0.04,-0.017
1,1.32,-1.4,0.516,1.026,-0.108,-0.035,-0.082,0.134,0.132,0.001,-0.039,-0.017
1,1.328,-1.4,0.516,1.028,-0.106,-0.034,-0.075,0.122,0.232,0.002,-0.037,-0.017
1,1.336,-1.401,0.515,1.03,-0.105,-0.032,-0.168,0.117,0.19,0.004,-0.036,-0.017
1,1.344,-1.401,0.515,1.031,-0.104,-0.031,-0.159,0.144,0.173,0.005,-0.035,-0.018
1,1.359,-1.402,0.515,1.032,-0.103,-0.03,-0.108,0.087,0.191,0.007,-0.034,-0.019
1,1.367,-1.403,0.514,1.031,-0.101,-0.029,-0.143,0.062,0.239,0.008,-0.034,-0.019
1,1.375,-1.403,0.514,1.033,-0.1,-0.027,-0.169,0.066,0.25,0.009,-0.032,-0.02
1,1.383,-1.404,0.514,1.034,-0.1,-0.025,-0.192,0.096,0.185,0.01,-0.031,-0.021
1,1.391,-1.404,0.514,1.034,-0.099,-0.024,-0.205,0.037,0.132,0.011,-0.031,-0.021
1,1.406,-1.405,0.513,1.035,-0.099,-0.023,-0.174,0.045,0.226,0.013,-0.03,-0.022
1,1.414,-1.405,0.513,1.033,-0.097,-0.022,-0.183,0.023,0.248,0.014,-0.03,-0.022
1,1.422,-1.406,0.513,1.035,-0.098,-0.02,-0.212,-0.006,0.196,0.015,-0.03,-0.023
1,1.43,-1.406,0.513,1.036,-0.098,-0.019,-0.182,-0.056,0.15,0.017,-0.029,-0.024
1,1.438,-1.407,0.513,1.036,-0.099,-0.018,-0.19,-0.045,0.19,0.018,-0.028,-0.024
1,1.454,-1.408,0.512,1.036,-0.099,-0.016,-0.2,-0.029,0.275,0.019,-0.026,-0.025
1,1.461,-1.408,0.512,1.034,-0.098,-0.013,-0.269,0.023,0.269,0.02,-0.024,-0.025
1,1.469,-1.409,0.512,1.034,-0.099,-0.011,-0.308,-0.021,0.158,0.02,-0.021,-0.026
1,1.477,-1.409,0.512,1.034,-0.099,-0.01,-0.29,-0.02,0.146,0.021,-0.017,-0.027
1,1.485,-1.41,0.512,1.034,-0.1,-0.009,-0.325,0.001,0.098,0.021,-0.014,-0.028
1,1.501,-1.411,0.512,1.033,-0.101,-0.008,-0.402,-0.023,0.162,0.022,-0.01,-0.029
1,1.508,-1.411,0.512,1.029,-0.101,-0.007,-0.464,-0.057,0.172,0.022,-0.005,-0.029
1,1.516,-1.412,0.512,1.027,-0.102,-0.005,-0.482,-0.057,0.06,0.022,-0.0,-0.03
1,1.524,-1.412,0.512,1.025,-0.103,-0.005,-0.541,-0.042,0.085,0.022,0.005,-0.031
1,1.532,-1.413,0.512,1.022,-0.104,-0.004,-0.583,-0.122,0.136,0.023,0.009,-0.032
1,1.547,-1.414,0.512,1.019,-0.105,-0.002,-0.64,-0.152,0.172,0.023,0.014,-0.033
1,1.555,-1.414,0.512,1.013,-0.105,-0.0,-0.695,-0.072,0.087,0.023,0.019,-0.034
1,1.563,-1.415,0.513,1.009,-0.106,0.001,-0.739,-0.016,0.084,0.023,0.025,-0.035
1,1.57,-1.415,0.513,1.004,-0.107,0.001,-0.779,-0.047,0.067,0.023,0.03,-0.036
1,1.578,-1.416,0.513,0.999,-0.108,0.002,-0.844,-0.075,0.135,0.023,0.035,-0.037
1,1.593,-1.417,0.513,0.992,-0.109,0.004,-0.889,-0.056,0.149,0.023,0.035,-0.037
1,1.6,-1.418,0.513,0.984,-0.108,0.006,-0.972,0.026,0.118,0.022,0.045,-0.038
1,1.607,-1.418,0.513,0.977,-0.11,0.007,-0.995,0.011,0.012,0.022,0.049,-0.04
1,1.615,-1.419,0.513,0.97,-0.11,0.008,-0.982,-0.009,0.031,0.021,0.054,-0.041
1,1.622,-1.42,0.513,0.962,-0.111,0.008,-1.003,0.003,0.069,0.021,0.058,-0.042
1,1.636,-1.421,0.514,0.954,-0.112,0.01,-1.095,0.013,0.128,0.021,0.062,-0.042
1,1.643,-1.422,0.514,0.943,-0.112,0.011,-1.143,-0.022,0.027,0.021,0.066,-0.043
1,1.65,-1.422,0.514,0.934,-0.113,0.011,-1.151,0.0,-0.042,0.02,0.071,-0.045
1,1.658,-1.423,0.514,0.925,-0.114,0.011,-1.158,-0.001,-0.011,0.02,0.075,-0.046
1,1.664,-1.424,0.514,0.915,-0.113,0.012,-1.226,0.009,-0.01,0.019,0.08,-0.046
1,1.678,-1.425,0.514,0.904,-0.114,0.012,-1.292,0.0,0.005,0.019,0.08,-0.046
1,1.684,-1.426,0.514,0.891,-0.114,0.013,-1.327,0.006,-0.057,0.019,0.088,-0.049
1,1.691,-1.426,0.514,0.881,-0.114,0.012,-1.321,0.043,-0.12,0.018,0.092,-0.05
1,1.697,-1.427,0.515,0.869,-0.115,0.012,-1.35,0.029,-0.126,0.018,0.096,-0.051
1,1.704,-1.427,0.515,0.857,-0.115,0.011,-1.414,0.014,-0.035,0.018,0.096,-0.051
1,1.716,-1.429,0.515,0.857,-0.115,0.011,-1.414,0.014,-0.035,0.018,0.099,-0.053
1,1.722,-1.429,0.515,0.844,-0.115,0.012,-1.45,0.031,-0.053,0.018,0.099,-0.053
1,1.722,-1.429,0.515,0.844,-0.115,0.012,-1.45,0.031,-0.053,0.018,0.099,-0.053
1,1.722,-1.429,0.515,0.844,-0.115,0.012,-1.45,0.031,-0.053,0.018,0.099,-0.053
1,1.722,-1.429,0.515,0.844,-0.115,0.012,-1.45,0.031,-0.053,0.018,0.099,-0.053
1,1.752,-1.432,0.515,0.83,-0.114,0.012,-1.449,0.029,-0.137,0.017,0.106,-0.054
1,1.758,-1.433,0.515,0.819,-0.115,0.011,-1.464,0.061,-0.175,0.016,0.109,-0.055
1,1.763,-1.433,0.515,0.786,-0.118,0.007,-1.463,0.093,-0.141,0.015,0.114,-0.057
1,1.769,-1.434,0.515,0.741,-0.11,0.006,-1.543,0.105,-0.187,0.014,0.117,-0.058
1,1.774,-1.435,0.515,0.714,-0.11,0.004,-1.555,0.104,-0.205,0.012,0.122,-0.06
2,-1.929,1.045,0.595,-0.081,-0.126,-0.025,-0.252,0.227,-0.071,0.002,0.028,-0.097
2,-1.929,1.044,0.595,-0.083,-0.126,-0.026,-0.218,0.229,-0.071,0.0,0.028,-0.096
2,-1.929,1.042,0.595,-0.084,-0.125,-0.027,-0.243,0.233,-0.113,-0.001,0.028,-0.096
2,-1.929,1.041,0.594,-0.083,-0.124,-0.027,-0.258,0.223,-0.096,-0.002,0.028,-0.096
2,-1.929,1.04,0.594,-0.084,-0.123,-0.028,-0.218,0.251,-0.1,-0.004,0.028,-0.095
2,-1.929,1.039,0.594,-0.084,-0.122,-0.029,-0.209,0.261,-0.105,-0.005,0.028,-0.094
2,-1.929,1.038,0.594,-0.084,-0.121,-0.029,-0.234,0.249,-0.055,-0.007,0.027,-0.094
2,-1.93,1.036,0.593,-0.085,-0.119,-0.03,-0.234,0.249,-0.055,-0.008,0.027,-0.093
2,-1.93,1.035,0.593,-0.084,-0.117,-0.03,-0.216,0.292,-0.082,-0.009,0.028,-0.093
2,-1.93,1.035,0.593,-0.085,-0.116,-0.031,-0.216,0.292,-0.082,-0.01,0.028,-0.093
2,-1.93,1.034,0.593,-0.087,-0.114,-0.032,-0.237,0.323,-0.057,-0.011,0.029,-0.092
2,-1.93,1.033,0.592,-0.088,-0.112,-0.032,-0.235,0.367,-0.076,-0.012,0.029,-0.092
2,-1.93,1.031,0.592,-0.089,-0.11,-0.033,-0.235,0.367,-0.076,-0.012,0.029,-0.092
2,-1.93,1.03,0.591,-0.088,-0.108,-0.033,-0.22,0.357,-0.039,-0.013,0.029,-0.092
2,-1.931,1.03,0.591,-0.089,-0.106,-0.033,-0.21,0.334,-0.043,-0.014,0.029,-0.091
2,-1.931,1.029,0.591,-0.09,-0.104,-0.034,-0.235,0.336,-0.061,-0.015,0.029,-0.091
2,-1.931,1.028,0.59,-0.091,-0.102,-0.034,-0.257,0.375,-0.047,-0.015,0.028,-0.091
2,-1.931,1.027,0.59,-0.092,-0.1,-0.035,-0.199,0.348,-0.026,-0.016,0.028,-0.091
2,-1.931,1.026,0.59,-0.09,-0.097,-0.035,-0.204,0.378,-0.072,-0.016,0.027,-0.091
2,-1.931,1.025,0.589,-0.091,-0.095,-0.036,-0.204,0.378,-0.072,-0.017,0.025,-0.09
2,-1.931,1.025,0.589,-0.091,-0.093,-0.036,-0.165,0.364,-0.085,-0.017,0.025,-0.09
2,-1.932,1.024,0.588,-0.091,-0.091,-0.037,-0.16,0.415,-0.06,-0.017,0.024,-0.09
2,-1.932,1.023,0.588,-0.092,-0.089,-0.038,-0.175,0.4,-0.058,-0.017,0.024,-0.09
2,-1.932,1.022,0.588,-0.091,-0.087,-0.038,-0.143,0.378,-0.021,-0.017,0.023,-0.09
2,-1.932,1.021,0.587,-0.092,-0.086,-0.038,-0.143,0.378,-0.021,-0.015,0.023,-0.091
2,-1.932,1.021,0.587,-0.092,-0.084,-0.039,-0.182,0.344,-0.042,-0.015,0.023,-0.091
2,-1.932,1.021,0.587,-0.094,-0.083,-0.039,-0.159,0.347,-0.002,-0.014,0.023,-0.091
2,-1.933,1.019,0.586,-0.097,-0.081,-0.039,-0.159,0.347,-0.002,-0.014,0.023,-0.091
2,-1.933,1.018,0.585,-0.094,-0.079,-0.039,-0.151,0.345,-0.026,-0.014,0.022,-0.091
2,-1.933,1.018,0.585,-0.093,-0.077,-0.04,-0.16,0.341,0.005,-0.014,0.021,-0.091
2,-1.933,1.017,0.584,-0.093,-0.075,-0.04,-0.133,0.322,-0.01,-0.014,0.02,-0.091
2,-1.934,1.017,0.584,-0.093,-0.073,-0.04,-0.136,0.313,-0.005,-0.014,0.019,-0.091
2,-1.934,1.017,0.584,-0.093,-0.071,-0.04,-0.107,0.305,-0.007,-0.013,0.018,-0.091
2,-1.934,1.017,0.584,-0.094,-0.07,-0.04,-0.094,0.261,-0.0,-0.012,0.017,-0.091
2,-1.934,1.015,0.583,-0.096,-0.068,-0.04,-0.094,0.261,-0.0,-0.012,0.016,-0.091
2,-1.934,1.014,0.582,-0.094,-0.067,-0.04,-0.11,0.261,0.02,-0.011,0.015,-0.091
2,-1.934,1.014,0.582,-0.093,-0.065,-0.04,-0.044,0.278,0.0,-0.01,0.014,-0.091
2,-1.934,1.013,0.581,-0.091,-0.064,-0.04,-0.044,0.278,0.0,-0.008,0.012,-0.091
2,-1.934,1.012,0.581,-0.087,-0.062,-0.041,-0.037,0.183,0.033,-0.006,0.01,-0.092
2,-1.934,1.012,0.58,-0.085,-0.061,-0.041,-0.037,0.183,0.033,-0.005,0.007,-0.092
2,-1.935,1.011,0.579,-0.083,-0.061,-0.04,-0.007,0.204,0.077,-0.003,0.005,-0.092
2,-1.934,1.011,0.579,-0.082,-0.06,-0.04,0.052,0.182,0.044,-0.001,0.003,-0.092
2,-1.934,1.01,0.579,-0.08,-0.061,-0.04,0.074,0.169,0.029,0.002,0.001,-0.092
2,-1.935,1.009,0.578,-0.076,-0.062,-0.04,0.066,0.148,0.048,0.005,-0.002,-0.093
2,-1.934,1.009,0.578,-0.074,-0.063,-0.039,0.081,0.105,0.081,0.007,-0.004,-0.093
2,-1.934,1.008,0.577,-0.071,-0.064,-0.039,0.087,0.128,0.106,0.009,-0.006,-0.094
2,-1.934,1.008,0.577,-0.068,-0.065,-0.038,0.105,0.08,0.066,0.01,-0.009,-0.094
2,-1.934,1.008,0.576,-0.065,-0.065,-0.038,0.137,0.045,0.058,0.012,-0.011,-0.094
2,-1.934,1.008,0.576,-0.062,-0.067,-0.037,0.196,-0.02,0.08,0.015,-0.014,-0.094
2,-1.934,1.008,0.576,-0.06,-0.068,-0.037,0.219,-0.065,0.063,0.017,-0.017,-0.094
2,-1.934,1.005,0.575,-0.058,-0.071,-0.036,0.251,-0.109,0.055,0.02,-0.02,-0.095
2,-1.933,1.005,0.574,-0.053,-0.073,-0.036,0.239,-0.134,0.03,0.023,-0.024,-0.095
2,-1.933,1.004,0.574,-0.048,-0.075,-0.036,0.239,-0.134,0.03,0.025,-0.027,-0.095
2,-1.933,1.003,0.573,-0.04,-0.077,-0.037,0.284,-0.145,0.011,0.027,-0.03,-0.094
2,-1.932,1.002,0.573,-0.034,-0.08,-0.037,0.348,-0.177,0.05,0.029,-0.033,-0.094
2,-1.932,1.002,0.573,-0.028,-0.082,-0.036,0.32,-0.193,0.061,0.031,-0.035,-0.094
2,-1.932,1.001,0.572,-0.022,-0.086,-0.036,0.345,-0.163,0.056,0.033,-0.038,-0.094
2,-1.93,1.0,0.571,-0.016,-0.089,-0.036,0.359,-0.208,0.09,0.035,-0.041,-0.093
2,-1.93,0.999,0.571,-0.008,-0.093,-0.036,0.372,-0.236,0.061,0.038,-0.044,-0.093
2,-1.929,0.998,0.57,-0.001,-0.097,-0.036,0.462,-0.323,0.058,0.041,-0.048,-0.093
2,-1.929,0.997,0.57,0.005,-0.102,-0.036,0.521,-0.355,0.011,0.045,-0.051,-0.092
2,-1.928,0.996,0.57,0.012,-0.107,-0.036,0.521,-0.355,0.011,0.049,-0.055,-0.092
2,-1.927,0.995,0.569,0.019,-0.113,-0.037,0.551,-0.387,-0.012,0.053,-0.058,-0.092
2,-1.926,0.994,0.568,0.028,-0.119,-0.037,0.559,-0.432,0.002,0.057,-0.061,-0.091
2,-1.925,0.993,0.568,0.036,-0.125,-0.038,0.625,-0.526,0.031,0.06,-0.064,-0.092
2,-1.924,0.992,0.568,0.044,-0.132,-0.038,0.625,-0.526,0.031,0.063,-0.066,-0.091
2,-1.923,0.991,0.567,0.052,-0.139,-0.038,0.608,-0.508,0.042,0.066,-0.067,-0.091
2,-1.921,0.988,0.567,0.06,-0.147,-0.038,0.581,-0.554,0.018,0.069,-0.07,-0.091
2,-1.92,0.987,0.566,0.069,-0.155,-0.039,0.619,-0.628,0.034,0.073,-0.071,-0.091
2,-1.918,0.986,0.566,0.078,-0.163,-0.039,0.619,-0.628,0.034,0.075,-0.074,-0.09
2,-1.917,0.984,0.566,0.086,-0.172,-0.039,0.658,-0.655,0.012,0.078,-0.076,-0.089
2,-1.916,0.983,0.565,0.095,-0.18,-0.04,0.691,-0.701,-0.009,0.082,-0.079,-0.089
2,-1.913,0.98,0.564,0.104,-0.189,-0.04,0.691,-0.701,-0.009,0.084,-0.082,-0.087
2,-1.911,0.978,0.564,0.117,-0.197,-0.041,0.758,-0.724,-0.005,0.087,-0.085,-0.086
2,-1.91,0.976,0.563,0.127,-0.207,-0.042,0.758,-0.724,-0.005,0.089,-0.089,-0.085
2,-1.908,0.974,0.563,0.137,-0.216,-0.042,0.786,-0.739,-0.042,0.09,-0.092,-0.084
2,-1.906,0.973,0.563,0.147,-0.226,-0.043,0.795,-0.777,0.02,0.092,-0.093,-0.083
2,-1.904,0.971,0.562,0.158,-0.235,-0.043,0.859,-0.786,0.044,0.093,-0.095,-0.082
2,-1.904,0.971,0.562,0.17,-0.244,-0.044,0.853,-0.787,0.039,0.095,-0.098,-0.081
2,-1.904,0.971,0.562,0.179,-0.255,-0.044,0.897,-0.833,-0.011,0.098,-0.101,-0.08
2,-1.904,0.971,0.562,0.188,-0.265,-0.044,0.897,-0.833,-0.011,0.101,-0.104,-0.079
2,-1.894,0.961,0.56,0.198,-0.277,-0.044,0.941,-0.913,-0.037,0.105,-0.107,-0.079
2,-1.889,0.956,0.559,0.211,-0.287,-0.046,0.941,-0.913,-0.037,0.108,-0.11,-0.078
2,-1.887,0.954,0.559,0.227,-0.298,-0.047,0.947,-0.942,-0.042,0.11,-0.114,-0.077
2,-1.885,0.951,0.558,0.241,-0.309,-0.048,0.995,-0.92,0.045,0.112,-0.117,-0.076
2,-1.882,0.949,0.558,0.254,-0.321,-0.048,0.995,-0.92,0.045,0.114,-0.12,-0.075
2,-1.879,0.946,0.557,0.267,-0.334,-0.049,1.059,-0.963,0.001,0.117,-0.122,-0.074
2,-1.874,0.941,0.556,0.281,-0.347,-0.05,1.053,-1.016,-0.024,0.12,-0.126,-0.074
2,-1.871,0.938,0.556,0.297,-0.359,-0.051,1.09,-1.104,-0.013,0.123,-0.128,-0.074
2,-1.867,0.935,0.556,0.311,-0.373,-0.052,1.09,-1.104,-0.013,0.127,-0.132,-0.073
2,-1.865,0.932,0.555,0.326,-0.388,-0.054,1.108,-1.113,-0.015,0.13,-0.135,-0.073
2,-1.862,0.929,0.554,0.34,-0.401,-0.055,1.151,-1.086,-0.059,0.134,-0.138,-0.073
2,-1.855,0.922,0.553,0.355,-0.415,-0.057,1.153,-1.122,-0.091,0.136,-0.14,-0.073
2,-1.852,0.919,0.553,0.372,-0.429,-0.059,1.133,-1.149,-0.087,0.138,-0.142,-0.072
2,-1.848,0.915,0.552,0.387,-0.443,-0.061,1.133,-1.149,-0.087,0.139,-0.142,-0.072
2,-1.844,0.912,0.552,0.401,-0.458,-0.062,1.067,-1.205,-0.033,0.141,-0.141,-0.072
2,-1.841,0.908,0.551,0.415,-0.473,-0.063,1.07,-1.2,0.033,0.142,-0.139,-0.073
2,-1.833,0.9,0.55,0.429,-0.487,-0.064,1.07,-1.2,0.033,0.143,-0.139,-0.073
2,-1.829,0.896,0.55,0.445,-0.502,-0.064,1.057,-1.247,0.035,0.144,-0.139,-0.073
2,-1.825,0.892,0.549,0.458,-0.518,-0.065,1.05,-1.248,0.08,0.145,-0.139,-0.074
2,-1.82,0.888,0.549,0.471,-0.534,-0.065,1.054,-1.236,0.13,0.149,-0.139,-0.074
2,-1.816,0.884,0.548,0.485,-0.55,-0.065,1.087,-1.259,0.111,0.15,-0.139,-0.074
2,-1.808,0.875,0.547,0.499,-0.565,-0.065,1.087,-1.259,0.111,0.151,-0.14,-0.073
2,-1.803,0.87,0.546,0.514,-0.581,-0.065,1.056,-1.249,0.086,0.152,-0.141,-0.072
2,-1.799,0.865,0.546,0.527,-0.597,-0.065,1.051,-1.21,0.082,0.152,-0.139,-0.071
2,-1.794,0.861,0.545,0.541,-0.613,-0.065,0.988,-1.194,0.137,0.151,-0.138,-0.07
2,-1.789,0.856,0.545,0.555,-0.628,-0.064,0.979,-1.176,0.148,0.148,-0.136,-0.069
2,-1.779,0.846,0.544,0.569,-0.642,-0.064,0.979,-1.176,0.148,0.145,-0.133,-0.068
2,-1.774,0.841,0.544,0.582,-0.658,-0.062,0.961,-1.076,0.254,0.143,-0.13,-0.067
2,-1.769,0.836,0.543,0.595,-0.673,-0.06,0.88,-1.062,0.269,0.142,-0.127,-0.066
2,-1.764,0.83,0.543,0.608,-0.686,-0.058,0.808,-1.018,0.235,0.139,-0.124,-0.064
2,-1.759,0.825,0.542,0.621,-0.7,-0.057,0.808,-1.018,0.235,0.137,-0.121,-0.063
2,-1.748,0.814,0.542,0.632,-0.714,-0.055,0.828,-0.955,0.269,0.135,-0.118,-0.061
2,-1.743,0.808,0.541,0.644,-0.727,-0.053,0.769,-0.953,0.331,0.133,-0.114,-0.06
2,-1.737,0.802,0.541,0.655,-0.741,-0.049,0.681,-0.874,0.419,0.131,-0.11,-0.058
2,-1.732,0.797,0.541,0.666,-0.754,-0.046,0.681,-0.874,0.419,0.127,-0.106,-0.057
2,-1.726,0.791,0.54,0.676,-0.766,-0.042,0.641,-0.816,0.506,0.124,-0.103,-0.056
2,-1.715,0.779,0.54,0.685,-0.779,-0.037,0.641,-0.816,0.506,0.122,-0.099,-0.054
2,-1.709,0.773,0.54,0.696,-0.791,-0.033,0.618,-0.743,0.542,0.12,-0.099,-0.053
2,-1.703,0.767,0.54,0.706,-0.804,-0.029,0.676,-0.721,0.478,0.118,-0.099,-0.051
2,-1.698,0.761,0.54,0.716,-0.816,-0.025,0.677,-0.731,0.428,0.116,-0.099,-0.049
2,-1.692,0.755,0.54,0.726,-0.827,-0.022,0.69,-0.654,0.38,0.115,-0.1,-0.046
2,-1.68,0.742,0.54,0.736,-0.839,-0.02,0.69,-0.654,0.38,0.114,-0.102,-0.044
2,-1.673,0.735,0.539,0.747,-0.849,-0.016,0.729,-0.633,0.373,0.113,-0.102,-0.042
2,-1.667,0.729,0.539,0.758,-0.86,-0.014,0.71,-0.615,0.34,0.11,-0.103,-0.04
2,-1.661,0.722,0.539,0.767,-0.871,-0.011,0.71,-0.594,0.317,0.108,-0.103,-0.039
2,-1.655,0.716,0.539,0.778,-0.881,-0.009,0.68,-0.55,0.265,0.106,-0.103,-0.038
2,-1.642,0.703,0.54,0.787,-0.891,-0.008,0.68,-0.55,0.265,0.104,-0.103,-0.038
2,-1.636,0.697,0.54,0.798,-0.899,-0.006,0.704,-0.502,0.275,0.1,-0.101,-0.035
2,-1.629,0.69,0.539,0.808,-0.908,-0.003,0.639,-0.499,0.257,0.1,-0.101,-0.035
2,-1.622,0.683,0.54,0.817,-0.917,-0.001,0.639,-0.499,0.257,0.098,-0.099,-0.034
2,-1.615,0.676,0.539,0.827,-0.925,0.001,0.61,-0.475,0.235,0.096,-0.096,-0.033
2,-1.602,0.663,0.54,0.835,-0.934,0.003,0.598,-0.455,0.218,0.093,-0.094,-0.033
2,-1.595,0.656,0.54,0.842,-0.941,0.005,0.554,-0.426,0.24,0.091,-0.09,-0.033
2,-1.588,0.649,0.54,0.85,-0.949,0.007,0.423,-0.338,0.236,0.089,-0.085,-0.033
2,-1.581,0.642,0.54,0.856,-0.955,0.01,0.423,-0.338,0.236,0.084,-0.079,-0.032
2,-1.574,0.635,0.541,0.863,-0.962,0.013,0.219,-0.233,0.242,0.079,-0.074,-0.031
2,-1.561,0.621,0.541,0.869,-0.967,0.015,0.219,-0.233,0.242,0.075,-0.068,-0.031
2,-1.553,0.614,0.541,0.873,-0.97,0.018,0.168,-0.083,0.119,0.067,-0.057,-0.027
2,-1.546,0.607,0.542,0.878,-0.974,0.02,0.168,-0.083,0.119,0.067,-0.057,-0.027
2,-1.539,0.6,0.543,0.883,-0.979,0.021,0.128,-0.024,0.13,0.064,-0.054,-0.026
2,-1.532,0.593,0.542,0.888,-0.982,0.022,0.114,-0.022,0.09,0.061,-0.051,-0.025
2,-1.518,0.579,0.543,0.893,-0.985,0.022,0.106,0.01,0.111,0.058,-0.05,-0.024
2,-1.511,0.572,0.543,0.895,-0.985,0.024,0.117,0.034,0.009,0.053,-0.046,-0.022
2,-1.503,0.565,0.543,0.9,-0.989,0.024,0.095,0.085,0.104,0.053,-0.046,-0.021
2,-1.497,0.558,0.544,0.903,-0.991,0.025,0.095,0.085,0.104,0.05,-0.044,-0.02
2,-1.489,0.551,0.544,0.908,-0.993,0.026,0.051,0.163,0.19,0.045,-0.043,-0.017
2,-1.475,0.537,0.544,0.911,-0.994,0.028,0.051,0.163,0.19,0.045,-0.043,-0.017
2,-1.468,0.529,0.545,0.915,-0.993,0.029,0.041,0.168,0.133,0.043,-0.043,-0.015
2,-1.46,0.523,0.545,0.921,-0.994,0.03,0.063,0.207,0.087,0.043,-0.043,-0.015
2,-1.453,0.516,0.545,0.925,-0.995,0.03,0.031,0.117,0.029,0.042,-0.044,-0.013
2,-1.445,0.509,0.546,0.928,-0.996,0.031,0.073,0.132,-0.039,0.043,-0.044,-0.012
2,-1.43,0.494,0.546,0.931,-0.997,0.03,0.073,0.132,-0.039,0.044,-0.044,-0.01
2,-1.423,0.487,0.547,0.935,-0.994,0.03,0.037,0.165,0.016,0.043,-0.042,-0.007
2,-1.416,0.481,0.547,0.939,-0.994,0.03,-0.021,0.123,0.068,0.042,-0.043,-0.007
2,-1.408,0.473,0.547,0.942,-0.996,0.031,-0.021,0.123,0.068,0.042,-0.04,-0.005
2,-1.401,0.466,0.547,0.944,-0.996,0.032,-0.008,0.206,0.08,0.041,-0.038,-0.004
2,-1.385,0.453,0.548,0.947,-0.997,0.032,-0.044,0.274,0.004,0.039,-0.036,-0.003
2,-1.378,0.445,0.548,0.949,-0.995,0.031,-0.093,0.235,0.046,0.035,-0.034,-0.002
2,-1.371,0.439,0.549,0.951,-0.996,0.031,-0.08,0.27,0.035,0.035,-0.033,-0.002
2,-1.363,0.432,0.549,0.953,-0.996,0.032,-0.08,0.27,0.035,0.034,-0.031,-0.001
2,-1.355,0.425,0.549,0.955,-0.994,0.033,-0.087,0.251,0.094,0.033,-0.029,-0.0
2,-1.34,0.411,0.55,0.956,-0.993,0.033,-0.141,0.359,0.069,0.033,-0.028,0.001
2,-1.333,0.404,0.55,0.957,-0.99,0.033,-0.187,0.304,-0.068,0.034,-0.025,0.002
2,-1.325,0.397,0.55,0.958,-0.991,0.032,-0.194,0.257,-0.116,0.035,-0.023,0.003
2,-1.318,0.39,0.551,0.959,-0.991,0.031,-0.258,0.188,-0.03,0.036,-0.021,0.005
2,-1.31,0.383,0.551,0.961,-0.99,0.03,-0.232,0.195,-0.04,0.037,-0.02,0.006
2,-1.295,0.369,0.552,0.961,-0.989,0.03,-0.232,0.195,-0.04,0.038,-0.02,0.007
2,-1.288,0.363,0.552,0.962,-0.985,0.028,-0.22,0.266,-0.115,0.039,-0.02,0.009
2,-1.28,0.356,0.552,0.964,-0.984,0.027,-0.178,0.23,-0.099,0.038,-0.024,0.012
2,-1.272,0.349,0.552,0.965,-0.985,0.026,-0.142,0.262,-0.097,0.038,-0.024,0.012
2,-1.265,0.342,0.552,0.966,-0.984,0.025,-0.128,0.331,-0.171,0.038,-0.026,0.014
2,-1.25,0.328,0.553,0.967,-0.983,0.023,-0.128,0.331,-0.171,0.037,-0.027,0.015
2,-1.242,0.322,0.553,0.967,-0.979,0.021,-0.097,0.364,-0.199,0.036,-0.028,0.017
2,-1.234,0.315,0.553,0.969,-0.979,0.019,-0.077,0.331,-0.083,0.035,-0.029,0.018
2,-1.227,0.308,0.554,0.97,-0.978,0.018,-0.088,0.342,-0.083,0.033,-0.027,0.022
2,-1.219,0.301,0.554,0.971,-0.977,0.017,-0.126,0.412,-0.14,0.033,-0.027,0.022
2,-1.204,0.288,0.554,0.972,-0.976,0.015,-0.126,0.412,-0.14,0.033,-0.026,0.024
2,-1.196,0.281,0.555,0.972,-0.971,0.013,-0.163,0.429,-0.195,0.031,-0.025,0.025
2,-1.189,0.275,0.554,0.974,-0.969,0.011,-0.118,0.422,-0.225,0.03,-0.025,0.027
2,-1.181,0.268,0.555,0.975,-0.968,0.009,-0.145,0.47,-0.106,0.027,-0.025,0.029
2,-1.173,0.261,0.555,0.976,-0.966,0.008,-0.112,0.551,-0.094,0.025,-0.025,0.03
2,-1.158,0.248,0.555,0.978,-0.963,0.007,-0.112,0.551,-0.094,0.023,-0.025,0.032
2,-1.15,0.242,0.555,0.977,-0.956,0.006,-0.077,0.539,-0.103,0.022,-0.026,0.034
2,-1.142,0.235,0.555,0.979,-0.954,0.005,-0.131,0.611,-0.104,0.021,-0.026,0.035
2,-1.135,0.229,0.555,0.981,-0.952,0.004,-0.103,0.475,-0.002,0.02,-0.025,0.038
2,-1.127,0.222,0.555,0.982,-0.949,0.003,-0.175,0.491,0.075,0.02,-0.025,0.038
2,-1.119,0.216,0.555,0.983,-0.946,0.004,-0.26,0.544,-0.07,0.021,-0.023,0.039
2,-1.104,0.203,0.556,0.983,-0.943,0.003,-0.26,0.544,-0.07,0.023,-0.02,0.04
2,-1.096,0.197,0.556,0.982,-0.936,0.002,-0.23,0.46,-0.182,0.026,-0.018,0.042
2,-1.088,0.191,0.556,0.982,-0.934,0.0,-0.216,0.353,-0.156,0.029,-0.015,0.044
2,-1.08,0.184,0.555,0.982,-0.934,-0.002,-0.301,0.454,-0.221,0.033,-0.013,0.045
2,-1.065,0.171,0.555,0.982,-0.933,-0.005,-0.254,0.361,-0.203,0.037,-0.012,0.047
2,-1.057,0.165,0.556,0.979,-0.929,-0.007,-0.207,0.296,-0.164,0.042,-0.011,0.049
2,-1.049,0.159,0.555,0.979,-0.929,-0.009,-0.207,0.296,-0.164,0.042,-0.01,0.049
2,-1.042,0.153,0.555,0.979,-0.929,-0.011,-0.279,0.394,-0.134,0.043,-0.011,0.051
2,-1.034,0.147,0.556,0.979,-0.928,-0.012,-0.257,0.39,0.007,0.042,-0.013,0.053
2,-1.018,0.134,0.555,0.979,-0.927,-0.013,-0.257,0.39,0.007,0.041,-0.015,0.056
2,-1.011,0.128,0.555,0.977,-0.923,-0.013,-0.091,0.45,-0.124,0.038,-0.018,0.058
2,-1.003,0.122,0.555,0.979,-0.922,-0.014,-0.054,0.566,-0.063,0.037,-0.021,0.059
2,-0.995,0.116,0.555,0.98,-0.921,-0.015,0.046,0.427,-0.023,0.034,-0.026,0.061
2,-0.988,0.11,0.555,0.982,-0.919,-0.015,0.044,0.466,0.008,0.032,-0.03,0.064
2,-0.972,0.097,0.555,0.983,-0.917,-0.015,0.044,0.466,0.008,0.031,-0.034,0.066
2,-0.964,0.092,0.555,0.984,-0.912,-0.016,0.098,0.507,-0.044,0.03,-0.037,0.068
2,-0.956,0.086,0.554,0.988,-0.91,-0.017,0.098,0.507,-0.044,0.031,-0.039,0.069
2,-0.948,0.08,0.554,0.991,-0.909,-0.019,-0.021,0.59,-0.155,0.031,-0.04,0.07
2,-0.94,0.074,0.555,0.994,-0.906,-0.021,0.074,0.46,-0.008,0.032,-0.04,0.072
2,-0.924,0.062,0.554,0.995,-0.905,-0.022,0.074,0.46,-0.008,0.033,-0.037,0.072
2,-0.916,0.056,0.554,0.996,-0.899,-0.023,0.016,0.436,-0.069,0.033,-0.036,0.073
2,-0.908,0.051,0.554,0.999,-0.898,-0.024,0.016,0.436,-0.069,0.035,-0.034,0.074
2,-0.901,0.045,0.554,1.001,-0.896,-0.025,-0.108,0.38,-0.063,0.037,-0.031,0.075
2,-0.892,0.039,0.554,1.003,-0.894,-0.026,-0.085,0.3,-0.084,0.039,-0.029,0.076
2,-0.877,0.028,0.553,1.004,-0.894,-0.028,-0.085,0.3,-0.084,0.043,-0.027,0.076
2,-0.868,0.022,0.553,1.005,-0.889,-0.03,-0.252,0.296,-0.077,0.047,-0.025,0.077
2,-0.86,0.017,0.553,1.007,-0.891,-0.032,-0.252,0.082,-0.014,0.05,-0.024,0.077
2,-0.852,0.011,0.553,1.01,-0.892,-0.034,-0.252,0.082,-0.014,0.056,-0.023,0.076
2,-0.844,0.005,0.552,1.012,-0.894,-0.036,-0.294,0.025,-0.107,0.06,-0.024,0.077
2,-0.828,-0.006,0.552,1.014,-0.894,-0.038,-0.294,0.025,-0.107,0.066,-0.024,0.077
2,-0.82,-0.012,0.552,1.014,-0.893,-0.04,-0.216,-0.098,-0.216,0.07,-0.025,0.078
2,-0.812,-0.018,0.552,1.016,-0.897,-0.043,-0.209,-0.06,-0.183,0.074,-0.026,0.078
2,-0.803,-0.024,0.552,1.019,-0.9,-0.046,-0.189,-0.105,-0.057,0.078,-0.029,0.078
2,-0.796,-0.029,0.551,1.02,-0.905,-0.048,-0.241,-0.028,-0.188,0.081,-0.032,0.077
2,-0.78,-0.041,0.55,1.022,-0.907,-0.051,-0.241,-0.028,-0.188,0.084,-0.035,0.077
2,-0.772,-0.046,0.551,1.026,-0.905,-0.054,0.024,-0.163,-0.155,0.086,-0.038,0.078
2,-0.763,-0.052,0.55,1.03,-0.909,-0.057,0.015,-0.047,-0.177,0.087,-0.041,0.078
2,-0.755,-0.058,0.55,1.033,-0.913,-0.059,0.037,-0.003,-0.136,0.088,-0.042,0.079
2,-0.748,-0.064,0.549,1.036,-0.917,-0.062,0.091,-0.113,-0.052,0.088,-0.042,0.078
2,-0.731,-0.076,0.549,1.04,-0.918,-0.063,0.091,-0.113,-0.052,0.086,-0.044,0.078
2,-0.723,-0.081,0.549,1.042,-0.915,-0.061,0.119,-0.064,0.006,0.084,-0.045,0.078
2,-0.715,-0.086,0.548,1.045,-0.919,-0.061,0.149,-0.014,-0.032,0.082,-0.045,0.077
2,-0.707,-0.092,0.548,1.05,-0.922,-0.062,0.192,-0.058,0.059,0.081,-0.046,0.076
2,-0.698,-0.098,0.548,1.054,-0.923,-0.063,0.222,-0.051,0.128,0.08,-0.047,0.076
2,-0.682,-0.11,0.547,1.058,-0.925,-0.062,0.222,-0.051,0.128,0.079,-0.048,0.076
2,-0.673,-0.116,0.547,1.06,-0.923,-0.06,0.235,0.018,0.211,0.078,-0.048,0.075
2,-0.665,-0.121,0.547,1.065,-0.925,-0.059,0.203,0.003,0.209,0.076,-0.048,0.074
2,-0.657,-0.127,0.546,1.07,-0.927,-0.057,0.085,-0.012,0.197,0.075,-0.047,0.074
2,-0.648,-0.133,0.546,1.074,-0.929,-0.055,0.053,0.062,0.224,0.075,-0.045,0.074
2,-0.631,-0.144,0.546,1.076,-0.931,-0.054,0.053,0.062,0.224,0.073,-0.043,0.074
2,-0.623,-0.15,0.545,1.079,-0.927,-0.051,0.021,0.074,0.176,0.072,-0.041,0.073
2,-0.614,-0.155,0.545,1.083,-0.929,-0.05,-0.019,0.153,0.118,0.069,-0.04,0.074
2,-0.606,-0.161,0.545,1.086,-0.93,-0.049,-0.075,0.221,0.109,0.066,-0.039,0.074
2,-0.597,-0.167,0.545,1.089,-0.93,-0.049,-0.038,0.25,0.214,0.064,-0.038,0.075
2,-0.58,-0.178,0.544,1.091,-0.931,-0.047,-0.038,0.25,0.214,0.061,-0.037,0.076
2,-0.572,-0.184,0.545,1.091,-0.927,-0.044,-0.024,0.146,0.135,0.059,-0.034,0.076
2,-0.563,-0.19,0.544,1.093,-0.927,-0.042,-0.149,0.227,0.161,0.057,-0.03,0.076
2,-0.555,-0.195,0.544,1.095,-0.926,-0.041,-0.199,0.22,0.136,0.055,-0.026,0.077
2,-0.545,-0.201,0.544,1.097,-0.926,-0.04,-0.232,0.209,0.074,0.053,-0.021,0.078
2,-0.529,-0.212,0.544,1.096,-0.926,-0.039,-0.232,0.209,0.074,0.051,-0.016,0.08
2,-0.52,-0.218,0.544,1.094,-0.92,-0.038,-0.286,0.293,-0.051,0.049,-0.012,0.081
2,-0.511,-0.224,0.544,1.094,-0.92,-0.038,-0.266,0.249,-0.006,0.046,-0.009,0.082
2,-0.503,-0.229,0.544,1.093,-0.918,-0.038,-0.337,0.3,0.046,0.043,-0.007,0.083
2,-0.494,-0.234,0.544,1.092,-0.917,-0.037,-0.262,0.44,0.039,0.038,-0.006,0.084
2,-0.478,-0.245,0.543,1.091,-0.915,-0.037,-0.315,0.419,0.218,0.034,-0.004,0.084
2,-0.469,-0.25,0.544,1.087,-0.905,-0.032,-0.323,0.473,0.231,0.021,-0.003,0.086
2,-0.46,-0.256,0.543,1.087,-0.902,-0.03,-0.281,0.519,0.221,0.021,-0.003,0.086
2,-0.452,-0.261,0.543,1.085,-0.899,-0.027,-0.349,0.685,0.164,0.015,-0.003,0.086
2,-0.443,-0.266,0.543,1.083,-0.895,-0.025,-0.403,0.798,0.028,0.01,-0.003,0.087
2,-0.427,-0.276,0.543,1.082,-0.89,-0.024,-0.403,0.798,0.028,0.007,-0.003,0.087
2,-0.418,-0.281,0.543,1.079,-0.877,-0.021,-0.235,0.701,0.114,0.006,-0.004,0.088
2,-0.41,-0.286,0.542,1.079,-0.877,-0.021,-0.321,0.911,0.046,0.004,-0.004,0.09
2,-0.401,-0.291,0.542,1.076,-0.872,-0.021,-0.246,0.882,-0.01,0.005,-0.005,0.092
2,-0.393,-0.295,0.543,1.075,-0.857,-0.02,-0.365,0.861,-0.11,0.006,-0.006,0.095
2,-0.376,-0.305,0.542,1.075,-0.851,-0.021,-0.222,0.691,-0.043,0.007,-0.006,0.097
2,-0.368,-0.31,0.542,1.073,-0.837,-0.02,-0.323,0.737,-0.037,0.009,-0.006,0.1
2,-0.359,-0.314,0.542,1.073,-0.831,-0.02,-0.233,0.707,-0.136,0.012,-0.003,0.106
2,-0.35,-0.319,0.543,1.072,-0.827,-0.022,-0.231,0.643,-0.092,0.012,-0.003,0.106
2,-0.342,-0.323,0.542,1.071,-0.823,-0.023,-0.341,0.609,-0.018,0.014,-0.002,0.108
2,-0.325,-0.332,0.542,1.069,-0.819,-0.023,-0.341,0.609,-0.018,0.015,-0.002,0.109
2,-0.317,-0.337,0.542,1.064,-0.808,-0.022,-0.396,0.523,0.072,0.016,-0.0,0.11
2,-0.309,-0.341,0.541,1.062,-0.804,-0.021,-0.3,0.447,0.132,0.017,0.003,0.111
2,-0.3,-0.345,0.541,1.061,-0.798,-0.019,-0.408,0.518,0.012,0.018,0.006,0.112
2,-0.292,-0.349,0.541,1.058,-0.794,-0.018,-0.408,0.518,0.012,0.019,0.007,0.113
2,-0.275,-0.357,0.541,1.057,-0.788,-0.018,-0.443,0.475,0.014,0.022,0.008,0.114
2,-0.266,-0.362,0.541,1.055,-0.776,-0.018,-0.372,0.484,0.021,0.025,0.006,0.116
2,-0.258,-0.366,0.541,1.054,-0.773,-0.018,-0.372,0.484,0.021,0.031,0.003,0.117
2,-0.25,-0.37,0.541,1.053,-0.771,-0.019,-0.316,0.305,-0.189,0.037,0.0,0.117
2,-0.242,-0.374,0.54,1.052,-0.768,-0.021,-0.107,0.079,-0.173,0.043,-0.003,0.118
2,-0.225,-0.381,0.54,1.051,-0.764,-0.022,-0.107,0.079,-0.173,0.05,-0.007,0.118
2,-0.217,-0.385,0.539,1.051,-0.756,-0.025,-0.019,-0.078,-0.284,0.056,-0.01,0.119
2,-0.209,-0.39,0.539,1.052,-0.754,-0.028,0.081,-0.233,-0.16,0.063,-0.014,0.12
2,-0.2,-0.393,0.539,1.053,-0.753,-0.029,-0.003,-0.217,-0.108,0.07,-0.017,0.12
2,-0.192,-0.397,0.539,1.055,-0.752,-0.031,0.067,-0.393,-0.054,0.075,-0.018,0.121
2,-0.175,-0.405,0.538,1.056,-0.752,-0.032,0.067,-0.393,-0.054,0.08,-0.02,0.121
2,-0.166,-0.41,0.538,1.056,-0.746,-0.032,-0.038,-0.326,0.025,0.085,-0.02,0.122
2,-0.158,-0.413,0.538,1.058,-0.749,-0.032,-0.128,-0.379,-0.151,0.09,-0.021,0.121
2,-0.15,-0.417,0.537,1.06,-0.75,-0.034,-0.058,-0.517,-0.281,0.096,-0.019,0.121
2,-0.141,-0.422,0.538,1.062,-0.751,-0.038,-0.014,-0.654,-0.242,0.101,-0.019,0.121
2,-0.124,-0.43,0.537,1.062,-0.755,-0.041,-0.014,-0.654,-0.242,0.108,-0.017,0.12
2,-0.116,-0.434,0.536,1.063,-0.751,-0.044,-0.125,-0.782,-0.178,0.115,-0.016,0.119
2,-0.107,-0.438,0.536,1.065,-0.756,-0.047,-0.067,-0.856,-0.172,0.123,-0.015,0.117
2,-0.099,-0.443,0.536,1.067,-0.76,-0.049,-0.208,-0.928,-0.205,0.131,-0.013,0.116
2,-0.091,-0.447,0.535,1.067,-0.766,-0.051,-0.244,-1.07,-0.051,0.137,-0.012,0.114
2,-0.074,-0.456,0.534,1.068,-0.771,-0.052,-0.244,-1.07,-0.051,0.142,-0.009,0.111
2,-0.065,-0.461,0.534,1.069,-0.771,-0.054,-0.203,-1.139,0.028,0.146,-0.007,0.109
2,-0.056,-0.465,0.534,1.07,-0.779,-0.055,-0.234,-1.091,0.016,0.149,-0.005,0.106
2,-0.048,-0.47,0.534,1.071,-0.786,-0.055,-0.353,-1.066,0.025,0.151,0.001,0.1
2,-0.039,-0.475,0.533,1.071,-0.794,-0.055,-0.272,-1.194,0.188,0.151,0.001,0.1
2,-0.023,-0.485,0.532,1.07,-0.802,-0.054,-0.272,-1.194,0.188,0.149,0.003,0.096
2,-0.014,-0.49,0.532,1.068,-0.803,-0.053,-0.474,-1.16,0.176,0.148,0.005,0.092
2,-0.005,-0.495,0.532,1.068,-0.811,-0.052,-0.512,-1.195,0.294,0.146,0.006,0.09
2,0.003,-0.501,0.532,1.066,-0.82,-0.049,-0.533,-1.079,0.237,0.145,0.006,0.086
2,0.011,-0.506,0.531,1.064,-0.829,-0.047,-0.516,-1.071,0.243,0.144,0.006,0.082
2,0.028,-0.516,0.531,1.062,-0.837,-0.045,-0.529,-1.065,0.34,0.143,0.006,0.079
2,0.036,-0.522,0.531,1.059,-0.84,-0.042,-0.529,-1.065,0.34,0.142,0.006,0.075
2,0.044,-0.527,0.53,1.058,-0.849,-0.039,-0.529,-1.039,0.325,0.141,0.006,0.072
2,0.053,-0.533,0.531,1.057,-0.856,-0.036,-0.529,-1.039,0.325,0.14,0.006,0.069
2,0.061,-0.539,0.53,1.057,-0.856,-0.036,-0.551,-1.054,0.278,0.138,0.006,0.066
2,0.078,-0.55,0.53,1.054,-0.873,-0.031,-0.515,-1.017,0.329,0.138,0.005,0.063
2,0.086,-0.556,0.53,1.05,-0.877,-0.028,-0.475,-0.982,0.393,0.137,0.004,0.06
2,0.094,-0.562,0.53,1.05,-0.885,-0.025,-0.463,-0.917,0.306,0.137,0.004,0.056
2,0.102,-0.568,0.53,1.049,-0.892,-0.022,-0.428,-0.893,0.332,0.135,0.002,0.054
2,0.11,-0.574,0.53,1.049,-0.899,-0.019,-0.428,-0.893,0.332,0.134,0.001,0.052
2,0.127,-0.587,0.53,1.048,-0.906,-0.016,-0.459,-0.892,0.361,0.133,-0.0,0.049
2,0.135,-0.593,0.53,1.044,-0.91,-0.013,-0.466,-0.883,0.364,0.132,-0.0,0.047
2,0.143,-0.599,0.53,1.043,-0.919,-0.01,-0.492,-0.852,0.331,0.132,0.0,0.044
2,0.151,-0.605,0.531,1.042,-0.926,-0.007,-0.483,-0.841,0.256,0.131,0.001,0.041
2,0.159,-0.612,0.531,1.04,-0.934,-0.004,-0.523,-0.835,0.248,0.129,0.001,0.039
2,0.175,-0.625,0.531,1.038,-0.942,-0.002,-0.523,-0.835,0.248,0.127,0.001,0.036
2,0.183,-0.631,0.531,1.035,-0.944,0.001,-0.473,-0.768,0.343,0.125,0.0,0.033
2,0.191,-0.638,0.531,1.034,-0.953,0.004,-0.464,-0.708,0.325,0.123,-0.001,0.031
2,0.199,-0.644,0.532,1.034,-0.959,0.007,-0.446,-0.7,0.259,0.12,-0.003,0.028
2,0.207,-0.651,0.532,1.033,-0.965,0.01,-0.428,-0.689,0.175,0.117,-0.006,0.026
2,0.223,-0.664,0.533,1.032,-0.97,0.012,-0.409,-0.662,0.149,0.114,-0.008,0.025
2,0.231,-0.671,0.533,1.03,-0.97,0.014,-0.37,-0.627,0.19,0.112,-0.009,0.024
2,0.239,-0.678,0.533,1.031,-0.976,0.016,-0.37,-0.627,0.19,0.11,-0.01,0.023
2,0.247,-0.685,0.534,1.029,-0.982,0.019,-0.431,-0.561,0.243,0.108,-0.01,0.021
2,0.254,-0.692,0.534,1.028,-0.988,0.021,-0.413,-0.556,0.202,0.105,-0.009,0.018
2,0.27,-0.706,0.535,1.027,-0.993,0.023,-0.413,-0.556,0.202,0.105,-0.009,0.018
2,0.278,-0.713,0.535,1.027,-0.993,0.023,-0.427,-0.493,0.093,0.103,-0.009,0.016
2,0.286,-0.72,0.536,1.027,-0.993,0.023,-0.427,-0.493,0.093,0.103,-0.009,0.016
2,0.294,-0.727,0.536,1.025,-0.998,0.026,-0.385,-0.443,0.147,0.101,-0.009,0.016
2,0.301,-0.734,0.537,1.023,-1.005,0.029,-0.364,-0.403,0.087,0.096,-0.011,0.014
2,0.317,-0.748,0.538,1.022,-1.009,0.03,-0.378,-0.423,0.066,0.091,-0.013,0.012
2,0.325,-0.755,0.538,1.02,-1.008,0.032,-0.327,-0.359,0.056,0.088,-0.014,0.011
2,0.333,-0.763,0.539,1.02,-1.013,0.033,-0.348,-0.345,0.054,0.088,-0.014,0.011
2,0.34,-0.77,0.539,1.019,-1.016,0.034,-0.324,-0.309,0.084,0.082,-0.015,0.01
2,0.348,-0.777,0.539,1.019,-1.02,0.035,-0.354,-0.284,0.111,0.08,-0.016,0.008
2,0.364,-0.792,0.541,1.018,-1.024,0.036,-0.368,-0.216,-0.013,0.078,-0.017,0.007
2,0.372,-0.799,0.541,1.016,-1.022,0.037,-0.323,-0.204,-0.066,0.075,-0.019,0.006
2,0.379,-0.806,0.542,1.018,-1.025,0.037,-0.273,-0.235,-0.018,0.075,-0.019,0.006
2,0.387,-0.814,0.542,1.019,-1.028,0.037,-0.244,-0.209,0.034,0.072,-0.021,0.006
2,0.395,-0.821,0.543,1.019,-1.03,0.037,-0.191,-0.139,-0.111,0.07,-0.024,0.005
2,0.41,-0.835,0.544,1.02,-1.031,0.036,-0.176,-0.122,-0.169,0.067,-0.026,0.004
2,0.418,-0.843,0.544,1.019,-1.029,0.036,-0.213,-0.124,-0.088,0.059,-0.03,0.002
2,0.426,-0.85,0.544,1.021,-1.031,0.035,-0.196,-0.048,-0.02,0.055,-0.031,0.001
2,0.434,-0.858,0.545,1.021,-1.033,0.035,-0.199,0.007,-0.063,0.051,-0.031,-0.0
2,0.441,-0.865,0.545,1.022,-1.034,0.035,-0.209,0.101,-0.151,0.051,-0.031,-0.0
2,0.457,-0.879,0.546,1.023,-1.034,0.034,-0.212,0.102,-0.16,0.046,-0.031,-0.001
2,0.465,-0.887,0.547,1.021,-1.03,0.033,-0.19,0.111,-0.039,0.041,-0.031,-0.002
2,0.472,-0.894,0.547,1.022,-1.029,0.034,-0.239,0.235,-0.169,0.035,-0.031,-0.003
2,0.48,-0.901,0.547,1.024,-1.028,0.032,-0.198,0.307,-0.249,0.024,-0.031,-0.004
2,0.488,-0.909,0.548,1.025,-1.026,0.03,-0.198,0.307,-0.249,0.024,-0.031,-0.004
2,0.503,-0.923,0.548,1.025,-1.024,0.029,-0.217,0.348,-0.055,0.018,-0.031,-0.005
2,0.511,-0.93,0.549,1.024,-1.018,0.029,-0.236,0.433,-0.173,0.006,-0.03,-0.006
2,0.519,-0.937,0.549,1.025,-1.015,0.028,-0.208,0.469,-0.252,-0.001,-0.03,-0.007
2,0.526,-0.945,0.55,1.026,-1.011,0.026,-0.185,0.562,-0.199,-0.001,-0.03,-0.007
2,0.534,-0.952,0.55,1.027,-1.006,0.024,-0.185,0.65,-0.115,-0.014,-0.029,-0.008
2,0.55,-0.966,0.551,1.027,-1.001,0.024,-0.252,0.769,-0.21,-0.014,-0.029,-0.008
2,0.558,-0.973,0.551,1.025,-0.991,0.023,-0.257,0.856,-0.243,-0.026,-0.028,-0.008
2,0.565,-0.98,0.551,1.026,-0.986,0.021,-0.223,0.831,-0.172,-0.032,-0.027,-0.008
2,0.573,-0.987,0.551,1.026,-0.979,0.02,-0.194,0.86,-0.14,-0.038,-0.027,-0.009
2,0.581,-0.993,0.552,1.027,-0.971,0.019,-0.218,0.942,-0.212,-0.044,-0.027,-0.009
2,0.596,-1.007,0.552,1.027,-0.963,0.017,-0.242,1.036,-0.218,-0.044,-0.027,-0.009
2,0.604,-1.013,0.552,1.025,-0.951,0.016,-0.205,1.054,-0.135,-0.055,-0.027,-0.009
2,0.611,-1.02,0.553,1.026,-0.942,0.015,-0.232,1.058,-0.12,-0.06,-0.026,-0.01
2,0.619,-1.027,0.553,1.026,-0.933,0.014,-0.181,1.148,-0.228,-0.06,-0.026,-0.01
2,0.627,-1.033,0.553,1.026,-0.923,0.013,-0.208,1.135,-0.228,-0.069,-0.022,-0.01
2,0.642,-1.045,0.553,1.026,-0.912,0.011,-0.28,1.105,-0.167,-0.069,-0.022,-0.01
2,0.65,-1.051,0.553,1.023,-0.898,0.01,-0.334,1.16,-0.181,-0.077,-0.019,-0.01
2,0.658,-1.057,0.553,1.023,-0.887,0.009,-0.345,1.278,-0.289,-0.081,-0.017,-0.011
2,0.665,-1.064,0.553,1.022,-0.876,0.007,-0.362,1.294,-0.315,-0.086,-0.015,-0.01
2,0.673,-1.07,0.554,1.021,-0.864,0.004,-0.342,1.28,-0.253,-0.09,-0.013,-0.01
2,0.688,-1.081,0.554,1.02,-0.851,0.002,-0.374,1.394,-0.282,-0.09,-0.013,-0.01
2,0.696,-1.086,0.553,1.017,-0.834,0.001,-0.442,1.443,-0.281,-0.098,-0.008,-0.01
2,0.704,-1.092,0.553,1.016,-0.82,-0.001,-0.416,1.413,-0.184,-0.102,-0.006,-0.01
2,0.712,-1.097,0.554,1.014,-0.807,-0.002,-0.438,1.423,-0.198,-0.102,-0.006,-0.01
2,0.719,-1.102,0.554,1.011,-0.793,-0.003,-0.481,1.488,-0.292,-0.109,0.001,-0.01
2,0.734,-1.113,0.553,1.008,-0.778,-0.006,-0.483,1.578,-0.278,-0.109,0.001,-0.01
2,0.741,-1.118,0.553,1.003,-0.759,-0.007,-0.552,1.577,-0.192,-0.115,0.007,-0.009
2,0.749,-1.123,0.553,1.0,-0.744,-0.008,-0.635,1.571,-0.274,-0.117,0.01,-0.008
2,0.756,-1.127,0.553,0.997,-0.729,-0.01,-0.593,1.571,-0.261,-0.119,0.012,-0.008
2,0.763,-1.132,0.553,0.993,-0.713,-0.012,-0.594,1.566,-0.21,-0.121,0.015,-0.008
2,0.778,-1.141,0.553,0.989,-0.697,-0.014,-0.687,1.573,-0.263,-0.121,0.015,-0.008
2,0.786,-1.145,0.552,0.983,-0.678,-0.016,-0.644,1.536,-0.306,-0.124,0.019,-0.007
2,0.793,-1.15,0.552,0.979,-0.663,-0.018,-0.598,1.585,-0.284,-0.124,0.019,-0.007
2,0.8,-1.154,0.552,0.975,-0.647,-0.021,-0.664,1.635,-0.237,-0.124,0.022,-0.008
2,0.807,-1.158,0.551,0.97,-0.631,-0.022,-0.717,1.569,-0.334,-0.124,0.024,-0.008
2,0.821,-1.165,0.551,0.965,-0.615,-0.025,-0.717,1.569,-0.334,-0.124,0.026,-0.008
2,0.828,-1.169,0.551,0.957,-0.595,-0.027,-0.709,1.46,-0.201,-0.123,0.031,-0.007
2,0.835,-1.173,0.55,0.952,-0.579,-0.028,-0.734,1.509,-0.289,-0.123,0.031,-0.007
2,0.842,-1.176,0.55,0.952,-0.579,-0.028,-0.734,1.509,-0.289,-0.123,0.034,-0.007
2,0.85,-1.18,0.549,0.947,-0.563,-0.031,-0.734,1.509,-0.289,-0.123,0.034,-0.007
2,0.856,-1.183,0.549,0.947,-0.563,-0.031,-0.824,1.482,-0.281,-0.122,0.037,-0.007
2,0.87,-1.189,0.548,0.94,-0.547,-0.033,-0.824,1.482,-0.281,-0.122,0.037,-0.007
2,0.877,-1.192,0.547,0.936,-0.535,-0.034,-0.903,1.521,-0.26,-0.12,0.044,-0.007
2,0.884,-1.195,0.547,0.903,-0.474,-0.04,-0.924,1.432,-0.234,-0.119,0.05,-0.008
2,0.89,-1.197,0.546,0.896,-0.459,-0.042,-0.973,1.439,-0.286,-0.118,0.054,-0.008
2,0.903,-1.203,0.545,0.887,-0.443,-0.044,-1.037,1.358,-0.17,-0.116,0.059,-0.008
2,0.91,-1.205,0.545,0.876,-0.425,-0.045,-1.122,1.335,-0.174,-0.114,0.066,-0.01
2,0.916,-1.208,0.544,0.867,-0.41,-0.046,-1.134,1.383,-0.224,-0.114,0.066,-0.01
2,0.923,-1.21,0.544,0.858,-0.395,-0.048,-1.117,1.335,-0.157,-0.112,0.07,-0.01
2,0.929,-1.212,0.543,0.848,-0.381,-0.049,-1.08,1.337,-0.17,-0.107,0.074,-0.011
2,0.941,-1.216,0.542,0.838,-0.366,-0.05,-1.136,1.32,-0.156,-0.107,0.074,-0.011
2,0.948,-1.218,0.541,0.826,-0.349,-0.052,-1.124,1.26,-0.185,-0.104,0.076,-0.011
2,0.954,-1.22,0.541,0.816,-0.336,-0.053,-1.193,1.186,-0.079,-0.101,0.077,-0.012
2,0.959,-1.222,0.54,0.806,-0.323,-0.053,-1.256,1.16,-0.114,-0.097,0.079,-0.013
2,0.965,-1.223,0.539,0.795,-0.31,-0.054,-1.21,1.165,-0.252,-0.09,0.083,-0.015
2,0.977,-1.226,0.538,0.784,-0.297,-0.057,-1.213,1.092,-0.168,-0.09,0.083,-0.015
2,0.982,-1.228,0.537,0.771,-0.282,-0.058,-1.213,1.092,-0.168,-0.086,0.085,-0.016
2,0.988,-1.229,0.536,0.761,-0.27,-0.059,-1.289,1.007,-0.127,-0.083,0.086,-0.016
2,0.994,-1.231,0.535,0.75,-0.259,-0.06,-1.261,0.973,-0.124,-0.075,0.089,-0.018
2,0.999,-1.232,0.535,0.739,-0.247,-0.061,-1.275,0.887,-0.045,-0.075,0.089,-0.018
2,1.01,-1.234,0.533,0.727,-0.237,-0.061,-1.278,0.907,0.004,-0.072,0.09,-0.018
2,1.015,-1.235,0.533,0.713,-0.223,-0.062,-1.258,0.892,-0.027,-0.068,0.092,-0.019
2,1.02,-1.236,0.532,0.702,-0.213,-0.062,-1.28,0.872,-0.092,-0.065,0.093,-0.02
2,1.025,-1.237,0.531,0.691,-0.203,-0.063,-1.275,0.838,-0.003,-0.061,0.094,-0.02
2,1.03,-1.238,0.53,0.679,-0.195,-0.064,-1.304,0.758,0.006,-0.057,0.096,-0.021
2,1.04,-1.24,0.529,0.667,-0.186,-0.063,-1.3,0.734,-0.017,-0.053,0.097,-0.022
2,1.045,-1.241,0.528,0.652,-0.175,-0.064,-1.313,0.689,-0.045,-0.049,0.098,-0.024
2,1.049,-1.241,0.527,0.64,-0.167,-0.065,-1.286,0.634,0.039,-0.045,0.099,-0.024
2,1.054,-1.242,0.527,0.629,-0.16,-0.065,-1.334,0.581,0.138,-0.041,0.099,-0.026
2,1.058,-1.242,0.526,0.617,-0.153,-0.064,-1.357,0.556,0.085,-0.036,0.099,-0.028
2,1.067,-1.243,0.524,0.604,-0.146,-0.064,-1.337,0.511,0.01,-0.032,0.099,-0.029
2,1.072,-1.244,0.524,0.589,-0.137,-0.065,-1.285,0.458,0.048,-0.024,0.1,-0.031
2,1.076,-1.245,0.523,0.577,-0.131,-0.064,-1.291,0.421,0.133,-0.024,0.1,-0.031
2,1.08,-1.245,0.522,0.565,-0.126,-0.063,-1.325,0.367,0.164,-0.02,0.1,-0.032
2,1.084,-1.245,0.522,0.552,-0.121,-0.062,-1.317,0.306,0.099,-0.016,0.1,-0.034
2,1.092,-1.246,0.52,0.54,-0.117,-0.061,-1.306,0.307,0.008,-0.012,0.1,-0.035
2,1.096,-1.246,0.52,0.525,-0.109,-0.062,-1.278,0.283,0.076,-0.006,0.098,-0.037
2,1.099,-1.247,0.519,0.514,-0.106,-0.062,-1.302,0.266,0.176,-0.006,0.098,-0.037
2,1.103,-1.247,0.518,0.502,-0.102,-0.061,-1.292,0.225,0.231,-0.003,0.098,-0.039
2,1.107,-1.247,0.518,0.49,-0.1,-0.059,-1.285,0.203,0.163,0.003,0.096,-0.042
2,1.114,-1.248,0.516,0.477,-0.097,-0.057,-1.285,0.203,0.163,0.003,0.096,-0.042
2,1.117,-1.248,0.516,0.464,-0.092,-0.057,-1.152,0.098,0.086,0.01,0.094,-0.045
2,1.121,-1.249,0.515,0.453,-0.09,-0.057,-1.188,0.085,0.126,0.012,0.093,-0.047
2,1.124,-1.249,0.514,0.441,-0.089,-0.056,-1.16,0.035,0.177,0.016,0.091,-0.048
2,1.127,-1.249,0.514,0.43,-0.087,-0.055,-1.158,0.013,0.231,0.018,0.09,-0.05
2,1.133,-1.25,0.513,0.419,-0.086,-0.053,-1.158,0.008,0.218,0.018,0.09,-0.05
2,1.136,-1.25,0.512,0.406,-0.084,-0.052,-1.137,0.029,0.175,0.023,0.086,-0.052
2,1.139,-1.25,0.511,0.395,-0.083,-0.051,-1.116,-0.063,0.17,0.026,0.085,-0.054
2,1.142,-1.25,0.511,0.384,-0.083,-0.05,-1.042,-0.083,0.133,0.029,0.083,-0.055
2,1.145,-1.251,0.51,0.374,-0.084,-0.049,-1.026,-0.11,0.148,0.029,0.083,-0.055
2,1.15,-1.251,0.51,0.364,-0.084,-0.048,-0.997,-0.127,0.152,0.031,0.081,-0.057
2,1.153,-1.252,0.509,0.352,-0.083,-0.048,-0.976,-0.154,0.186,0.035,0.077,-0.059
2,1.155,-1.252,0.508,0.343,-0.084,-0.046,-0.944,-0.149,0.22,0.036,0.075,-0.061
2,1.158,-1.252,0.508,0.334,-0.085,-0.045,-0.939,-0.215,0.224,0.038,0.073,-0.062
2,1.16,-1.253,0.508,0.324,-0.086,-0.043,-0.942,-0.219,0.255,0.04,0.071,-0.063
2,1.165,-1.254,0.507,0.315,-0.088,-0.041,-0.942,-0.219,0.255,0.04,0.071,-0.063
2,1.168,-1.254,0.507,0.305,-0.088,-0.039,-0.866,-0.193,0.229,0.044,0.068,-0.067
2,1.17,-1.254,0.506,0.296,-0.091,-0.037,-0.877,-0.253,0.239,0.045,0.066,-0.068
2,1.172,-1.255,0.506,0.288,-0.093,-0.035,-0.833,-0.287,0.192,0.047,0.065,-0.069
2,1.174,-1.255,0.505,0.28,-0.096,-0.034,-0.834,-0.269,0.155,0.048,0.063,-0.07
2,1.179,-1.256,0.505,0.272,-0.098,-0.033,-0.8,-0.286,0.162,0.05,0.061,-0.071
2,1.18,-1.257,0.504,0.263,-0.1,-0.032,-0.763,-0.307,0.148,0.051,0.059,-0.072
2,1.183,-1.257,0.504,0.256,-0.103,-0.031,-0.784,-0.295,0.148,0.052,0.057,-0.074
2,1.185,-1.258,0.504,0.249,-0.106,-0.03,-0.758,-0.317,0.162,0.052,0.055,-0.075
2,1.187,-1.258,0.504,0.242,-0.11,-0.028,-0.699,-0.321,0.226,0.052,0.053,-0.076
2,1.19,-1.26,0.503,0.235,-0.113,-0.026,-0.663,-0.327,0.212,0.052,0.051,-0.076
2,1.192,-1.26,0.503,0.227,-0.115,-0.025,-0.667,-0.342,0.227,0.052,0.049,-0.077
2,1.194,-1.261,0.503,0.222,-0.119,-0.023,-0.659,-0.3,0.236,0.051,0.047,-0.078
2,1.196,-1.262,0.503,0.215,-0.122,-0.021,-0.658,-0.306,0.205,0.051,0.046,-0.079
2,1.198,-1.262,0.503,0.209,-0.126,-0.019,-0.635,-0.316,0.21,0.05,0.044,-0.08
2,1.201,-1.264,0.502,0.203,-0.129,-0.017,-0.586,-0.32,0.241,0.05,0.043,-0.08
2,1.203,-1.265,0.502,0.197,-0.131,-0.015,-0.558,-0.301,0.227,0.049,0.041,-0.081
2,1.204,-1.265,0.502,0.192,-0.135,-0.013,-0.576,-0.257,0.218,0.048,0.039,-0.082
2,1.206,-1.266,0.502,0.188,-0.138,-0.011,-0.525,-0.269,0.214,0.047,0.037,-0.083
2,1.208,-1.267,0.502,0.183,-0.141,-0.009,-0.528,-0.256,0.199,0.045,0.036,-0.083
2,1.211,-1.269,0.502,0.178,-0.145,-0.007,-0.479,-0.225,0.193,0.044,0.035,-0.084
2,1.213,-1.27,0.502,0.174,-0.147,-0.006,-0.439,-0.212,0.209,0.043,0.033,-0.085
2,1.214,-1.271,0.502,0.17,-0.15,-0.004,-0.457,-0.247,0.116,0.042,0.031,-0.085
2,1.216,-1.272,0.502,0.167,-0.153,-0.003,-0.436,-0.195,0.108,0.04,0.029,-0.086
2,1.217,-1.273,0.501,0.163,-0.155,-0.002,-0.432,-0.153,0.111,0.038,0.028,-0.087
2,1.22,-1.275,0.502,0.159,-0.158,-0.001,-0.406,-0.167,0.115,0.037,0.027,-0.087
2,1.222,-1.276,0.502,0.156,-0.159,-0.0,-0.43,-0.136,0.101,0.035,0.027,-0.087
2,1.223,-1.277,0.502,0.153,-0.161,0.001,-0.418,-0.135,0.116,0.033,0.026,-0.087
2,1.224,-1.278,0.502,0.15,-0.163,0.002,-0.433,-0.104,0.092,0.033,0.026,-0.087
2,1.226,-1.279,0.502,0.147,-0.164,0.003,-0.368,-0.071,0.043,0.031,0.025,-0.088
2,1.229,-1.281,0.502,0.144,-0.166,0.003,-0.34,-0.066,0.058,0.027,0.024,-0.088
2,1.23,-1.282,0.502,0.142,-0.166,0.004,-0.316,-0.036,0.044,0.025,0.024,-0.089
2,1.231,-1.283,0.502,0.139,-0.167,0.004,-0.357,-0.031,0.029,0.023,0.024,-0.089
2,1.233,-1.284,0.502,0.137,-0.169,0.004,-0.362,-0.023,0.011,0.021,0.025,-0.09
2,1.234,-1.285,0.502,0.134,-0.17,0.004,-0.344,-0.025,0.033,0.021,0.025,-0.09
2,1.237,-1.287,0.502,0.131,-0.171,0.005,-0.367,0.026,0.007,0.018,0.025,-0.091
2,1.238,-1.289,0.502,0.129,-0.17,0.005,-0.401,0.041,0.034,0.015,0.025,-0.091
2,1.24,-1.29,0.502,0.127,-0.17,0.005,-0.369,0.055,0.026,0.014,0.025,-0.091
2,1.241,-1.291,0.503,0.124,-0.17,0.005,-0.39,0.094,0.02,0.012,0.025,-0.092
2,1.242,-1.292,0.503,0.122,-0.17,0.006,-0.369,0.112,0.063,0.01,0.024,-0.092
2,1.245,-1.294,0.503,0.12,-0.17,0.006,-0.359,0.105,0.067,0.008,0.024,-0.092
2,1.246,-1.295,0.503,0.118,-0.168,0.007,-0.343,0.097,0.021,0.006,0.023,-0.093
2,1.247,-1.296,0.503,0.116,-0.168,0.008,-0.328,0.168,0.07,0.004,0.023,-0.093
2,1.249,-1.297,0.503,0.114,-0.167,0.008,-0.31,0.19,0.045,0.002,0.023,-0.093
2,1.25,-1.298,0.503,0.112,-0.166,0.009,-0.358,0.203,0.03,0.0,0.023,-0.093
2,1.252,-1.3,0.503,0.11,-0.165,0.009,-0.352,0.204,0.04,-0.002,0.023,-0.093
2,1.254,-1.301,0.504,0.109,-0.162,0.01,-0.326,0.217,0.011,-0.003,0.023,-0.093
2,1.255,-1.302,0.504,0.107,-0.16,0.01,-0.327,0.202,0.011,-0.004,0.023,-0.092
2,1.256,-1.303,0.503,0.106,-0.158,0.01,-0.332,0.234,-0.048,-0.006,0.023,-0.092
2,1.257,-1.304,0.504,0.104,-0.157,0.01,-0.326,0.249,-0.053,-0.007,0.023,-0.092
2,1.259,-1.306,0.504,0.102,-0.155,0.009,-0.352,0.24,-0.055,-0.008,0.024,-0.091
2,1.261,-1.307,0.504,0.1,-0.152,0.009,-0.35,0.287,-0.013,-0.008,0.024,-0.091
2,1.262,-1.308,0.504,0.099,-0.15,0.009,-0.324,0.296,-0.048,-0.009,0.024,-0.091
2,1.263,-1.309,0.504,0.097,-0.148,0.008,-0.347,0.263,-0.037,-0.01,0.024,-0.09
3,-1.926,0.98,0.556,-0.076,0.014,-0.012,-0.27,0.151,0.047,-0.007,0.032,-0.017
3,-1.926,0.98,0.555,-0.077,0.013,-0.012,-0.295,0.147,0.059,-0.007,0.032,-0.017
