traj,px,py,pz,vx,vy,vz,ax,ay,az,roll,pitch,yaw
0,-1.98,1.03,0.58,-0.04,-0.09,0.0,0.14,0.49,-0.12,-0.04,-0.02,-0.03
0,-1.98,1.03,0.58,-0.03,-0.08,0.0,0.14,0.5,-0.09,-0.04,-0.02,-0.03
0,-1.98,1.03,0.58,-0.03,-0.08,-0.0,0.12,0.49,-0.1,-0.04,-0.02,-0.03
0,-1.98,1.03,0.58,-0.03,-0.07,-0.0,0.06,0.44,-0.08,-0.04,-0.01,-0.03
0,-1.98,1.03,0.58,-0.02,-0.07,-0.0,0.04,0.42,-0.08,-0.04,-0.01,-0.03
0,-1.98,1.03,0.58,-0.02,-0.06,-0.0,0.07,0.44,-0.07,-0.04,-0.01,-0.02
0,-1.98,1.03,0.58,-0.02,-0.05,-0.0,0.08,0.42,-0.07,-0.03,-0.01,-0.02
0,-1.98,1.03,0.58,-0.02,-0.05,-0.01,0.06,0.39,-0.11,-0.03,-0.01,-0.02
0,-1.98,1.03,0.58,-0.01,-0.05,-0.01,0.03,0.39,-0.1,-0.03,-0.01,-0.02
0,-1.98,1.03,0.58,-0.01,-0.04,-0.01,-0.0,0.39,-0.07,-0.03,-0.0,-0.02
0,-1.98,1.03,0.58,-0.01,-0.04,-0.01,-0.05,0.39,-0.03,-0.03,-0.0,-0.02
0,-1.97,1.03,0.58,-0.01,-0.03,-0.01,-0.09,0.36,-0.06,-0.03,-0.0,-0.02
0,-1.97,1.03,0.58,-0.01,-0.03,-0.01,-0.1,0.33,-0.04,-0.02,-0.0,-0.02
0,-1.97,1.03,0.57,-0.01,-0.02,-0.01,-0.1,0.31,-0.04,-0.02,0.0,-0.02
0,-1.97,1.03,0.57,-0.01,-0.02,-0.01,-0.06,0.27,-0.07,-0.02,0.0,-0.02
0,-1.97,1.03,0.57,-0.01,-0.02,-0.01,-0.08,0.25,-0.06,-0.02,0.0,-0.02
0,-1.97,1.03,0.57,-0.0,-0.01,-0.01,-0.09,0.24,-0.03,-0.01,0.0,-0.01
0,-1.97,1.03,0.57,-0.0,-0.01,-0.01,-0.11,0.16,-0.01,-0.01,0.0,-0.01
0,-1.97,1.03,0.57,-0.0,-0.01,-0.01,-0.12,0.14,-0.02,-0.01,0.0,-0.01
0,-1.97,1.03,0.57,-0.0,-0.01,-0.01,-0.1,0.13,0.0,-0.01,0.01,-0.01
0,-1.97,1.03,0.57,-0.0,-0.0,-0.01,-0.12,0.11,-0.0,-0.01,0.01,-0.01
0,-1.97,1.03,0.57,-0.0,0.0,-0.02,-0.16,0.08,-0.04,-0.0,0.01,-0.01
0,-1.97,1.03,0.57,-0.0,0.0,-0.02,-0.19,0.07,-0.05,-0.0,0.01,-0.01
0,-1.97,1.03,0.57,-0.0,0.0,-0.02,-0.16,0.08,-0.02,0.0,0.01,-0.01
0,-1.97,1.03,0.57,-0.0,0.0,-0.02,-0.16,0.05,-0.01,0.0,0.01,-0.01
0,-1.97,1.03,0.57,-0.0,0.0,-0.02,-0.18,0.05,-0.04,0.0,0.01,-0.01
0,-1.97,1.03,0.57,-0.0,0.01,-0.02,-0.2,0.06,-0.02,0.01,0.01,-0.0
0,-1.97,1.03,0.57,-0.01,0.01,-0.02,-0.22,-0.02,-0.0,0.01,0.02,-0.0
0,-1.97,1.03,0.57,-0.01,0.01,-0.02,-0.19,-0.05,0.03,0.01,0.02,-0.0
0,-1.97,1.03,0.57,-0.01,0.01,-0.02,-0.2,-0.07,0.07,0.01,0.01,-0.0
0,-1.97,1.03,0.57,-0.01,0.01,-0.02,-0.24,-0.09,0.06,0.01,0.01,-0.0
0,-1.97,1.03,0.57,-0.01,0.01,-0.02,-0.18,-0.11,0.06,0.02,0.01,-0.0
0,-1.97,1.03,0.57,-0.01,0.01,-0.02,-0.16,-0.14,0.06,0.02,0.01,0.0
0,-1.97,1.03,0.57,-0.01,0.01,-0.02,-0.17,-0.13,0.07,0.02,0.01,0.0
0,-1.97,1.03,0.57,-0.01,0.0,-0.02,-0.14,-0.13,0.07,0.02,0.01,0.0
0,-1.97,1.03,0.57,-0.01,0.0,-0.02,-0.12,-0.16,0.02,0.03,0.01,0.0
0,-1.97,1.03,0.57,-0.01,0.0,-0.02,-0.13,-0.21,0.07,0.03,0.01,0.0
0,-1.97,1.03,0.57,-0.01,0.0,-0.02,-0.12,-0.23,0.08,0.03,0.01,0.0
0,-1.97,1.03,0.57,-0.01,-0.0,-0.02,-0.05,-0.21,0.1,0.03,0.0,0.0
0,-1.97,1.03,0.57,-0.01,-0.0,-0.01,-0.03,-0.3,0.12,0.04,0.0,0.0
0,-1.97,1.03,0.57,-0.01,-0.01,-0.01,-0.03,-0.32,0.07,0.04,0.0,0.0
0,-1.97,1.03,0.57,-0.01,-0.01,-0.01,-0.02,-0.36,0.06,0.04,-0.0,0.0
0,-1.97,1.03,0.57,-0.01,-0.01,-0.01,-0.03,-0.37,0.06,0.05,-0.0,0.01
0,-1.97,1.03,0.57,-0.01,-0.02,-0.01,-0.02,-0.41,0.04,0.05,-0.01,0.01
0,-1.97,1.03,0.57,-0.01,-0.02,-0.01,0.01,-0.43,0.05,0.05,-0.01,0.01
0,-1.97,1.03,0.57,-0.01,-0.02,-0.01,0.03,-0.45,0.05,0.05,-0.01,0.01
0,-1.97,1.03,0.57,-0.01,-0.03,-0.01,0.08,-0.48,0.07,0.05,-0.01,0.01
0,-1.97,1.03,0.57,-0.0,-0.03,-0.01,0.13,-0.44,0.06,0.06,-0.02,0.01
0,-1.97,1.03,0.57,-0.0,-0.04,-0.01,0.12,-0.53,0.06,0.06,-0.02,0.01
0,-1.97,1.03,0.57,-0.0,-0.04,-0.01,0.16,-0.55,0.05,0.07,-0.02,0.01
0,-1.97,1.03,0.57,0.0,-0.05,-0.01,0.18,-0.52,0.03,0.07,-0.03,0.01
0,-1.97,1.03,0.57,0.0,-0.06,-0.01,0.23,-0.65,0.02,0.07,-0.03,0.01
0,-1.97,1.03,0.57,0.01,-0.06,-0.01,0.26,-0.64,-0.02,0.08,-0.03,0.01
0,-1.97,1.03,0.57,0.01,-0.07,-0.01,0.31,-0.64,-0.03,0.08,-0.04,0.01
0,-1.97,1.03,0.57,0.01,-0.08,-0.01,0.31,-0.69,0.01,0.08,-0.04,0.01
0,-1.97,1.03,0.57,0.02,-0.08,-0.01,0.34,-0.68,0.01,0.08,-0.04,0.01
0,-1.97,1.03,0.57,0.02,-0.09,-0.01,0.37,-0.65,0.04,0.08,-0.04,0.01
0,-1.97,1.03,0.57,0.03,-0.1,-0.01,0.36,-0.7,0.05,0.08,-0.05,0.01
0,-1.97,1.03,0.57,0.03,-0.11,-0.01,0.42,-0.69,0.05,0.09,-0.05,0.01
0,-1.97,1.02,0.57,0.04,-0.11,-0.01,0.44,-0.74,0.07,0.09,-0.05,0.01
0,-1.97,1.02,0.57,0.04,-0.12,-0.01,0.49,-0.76,0.06,0.09,-0.06,0.01
0,-1.97,1.02,0.57,0.05,-0.13,-0.01,0.54,-0.73,0.01,0.09,-0.06,0.01
0,-1.97,1.02,0.57,0.05,-0.14,-0.01,0.57,-0.76,-0.02,0.09,-0.06,0.01
0,-1.97,1.02,0.57,0.06,-0.15,-0.01,0.55,-0.79,0.02,0.1,-0.07,0.01
0,-1.96,1.02,0.57,0.07,-0.16,-0.01,0.61,-0.8,0.04,0.1,-0.07,0.01
0,-1.96,1.02,0.57,0.07,-0.17,-0.01,0.63,-0.84,0.05,0.1,-0.07,0.01
0,-1.96,1.02,0.57,0.08,-0.18,-0.01,0.68,-0.88,0.02,0.1,-0.08,0.01
0,-1.96,1.01,0.57,0.09,-0.18,-0.01,0.7,-0.86,0.0,0.1,-0.08,0.02
0,-1.96,1.01,0.57,0.1,-0.19,-0.01,0.74,-0.89,0.01,0.11,-0.08,0.02
0,-1.96,1.01,0.57,0.11,-0.2,-0.01,0.73,-0.91,-0.01,0.11,-0.09,0.02
0,-1.96,1.01,0.57,0.11,-0.21,-0.01,0.77,-0.92,-0.01,0.11,-0.09,0.02
0,-1.96,1.01,0.57,0.12,-0.22,-0.01,0.8,-0.95,-0.04,0.11,-0.09,0.02
0,-1.95,1.0,0.57,0.13,-0.23,-0.01,0.79,-0.93,-0.09,0.12,-0.09,0.02
0,-1.95,1.0,0.57,0.14,-0.24,-0.01,0.83,-0.95,-0.06,0.12,-0.1,0.02
0,-1.95,1.0,0.57,0.15,-0.25,-0.01,0.83,-0.92,-0.07,0.12,-0.1,0.02
0,-1.95,1.0,0.57,0.16,-0.27,-0.01,0.87,-0.93,-0.07,0.12,-0.1,0.02
0,-1.95,0.99,0.57,0.17,-0.28,-0.02,0.89,-0.9,-0.0,0.12,-0.1,0.02
0,-1.95,0.99,0.57,0.18,-0.29,-0.02,0.91,-0.92,0.02,0.12,-0.11,0.02
0,-1.94,0.99,0.57,0.19,-0.3,-0.02,0.94,-0.95,0.0,0.12,-0.11,0.02
0,-1.94,0.99,0.57,0.2,-0.31,-0.02,1.01,-0.92,-0.02,0.12,-0.12,0.02
0,-1.94,0.98,0.57,0.21,-0.32,-0.02,1.01,-0.97,-0.03,0.12,-0.12,0.02
0,-1.94,0.98,0.57,0.23,-0.33,-0.02,1.06,-0.94,-0.03,0.12,-0.12,0.02
0,-1.94,0.98,0.57,0.24,-0.34,-0.02,1.08,-0.97,-0.04,0.12,-0.12,0.02
0,-1.93,0.97,0.57,0.25,-0.35,-0.02,1.14,-0.93,-0.06,0.12,-0.13,0.02
0,-1.93,0.97,0.57,0.26,-0.37,-0.02,1.11,-0.95,-0.07,0.12,-0.13,0.02
0,-1.93,0.97,0.57,0.27,-0.38,-0.02,1.08,-0.93,0.0,0.12,-0.13,0.02
0,-1.92,0.96,0.57,0.29,-0.39,-0.02,1.09,-0.89,0.01,0.12,-0.13,0.02
0,-1.92,0.96,0.57,0.3,-0.4,-0.02,1.1,-0.88,0.02,0.12,-0.13,0.02
0,-1.92,0.96,0.57,0.31,-0.41,-0.02,1.11,-0.86,0.03,0.12,-0.13,0.02
0,-1.92,0.95,0.57,0.33,-0.42,-0.02,1.11,-0.85,-0.03,0.12,-0.13,0.02
0,-1.91,0.95,0.57,0.34,-0.43,-0.02,1.12,-0.84,0.0,0.11,-0.13,0.02
0,-1.91,0.94,0.56,0.35,-0.44,-0.02,1.11,-0.81,-0.02,0.11,-0.14,0.02
0,-1.9,0.94,0.56,0.37,-0.45,-0.02,1.14,-0.78,0.01,0.11,-0.14,0.02
0,-1.9,0.94,0.56,0.38,-0.46,-0.02,1.19,-0.76,0.01,0.11,-0.14,0.02
0,-1.9,0.93,0.56,0.39,-0.47,-0.02,1.18,-0.75,0.03,0.11,-0.14,0.02
0,-1.89,0.93,0.56,0.41,-0.48,-0.02,1.19,-0.74,0.04,0.1,-0.14,0.02
0,-1.89,0.92,0.56,0.42,-0.49,-0.02,1.2,-0.69,0.07,0.1,-0.14,0.02
0,-1.88,0.92,0.56,0.43,-0.5,-0.02,1.19,-0.7,0.1,0.1,-0.14,0.02
0,-1.88,0.92,0.56,0.45,-0.5,-0.02,1.18,-0.66,0.04,0.09,-0.14,0.02
0,-1.88,0.91,0.56,0.46,-0.51,-0.02,1.19,-0.62,0.05,0.09,-0.15,0.02
0,-1.87,0.9,0.56,0.48,-0.52,-0.02,1.27,-0.52,0.09,0.09,-0.15,0.02
0,-1.86,0.9,0.56,0.49,-0.53,-0.02,1.24,-0.52,0.09,0.09,-0.15,0.02
0,-1.86,0.9,0.56,0.51,-0.53,-0.02,1.23,-0.52,0.07,0.08,-0.15,0.02
0,-1.86,0.89,0.56,0.52,-0.54,-0.02,1.27,-0.48,0.1,0.08,-0.15,0.02
0,-1.85,0.89,0.56,0.54,-0.55,-0.02,1.25,-0.46,0.1,0.08,-0.15,0.02
0,-1.84,0.88,0.56,0.55,-0.56,-0.02,1.26,-0.39,0.11,0.07,-0.15,0.02
0,-1.84,0.88,0.56,0.57,-0.56,-0.02,1.23,-0.4,0.08,0.07,-0.15,0.02
0,-1.83,0.87,0.56,0.58,-0.57,-0.02,1.22,-0.34,0.13,0.07,-0.15,0.02
0,-1.83,0.87,0.56,0.6,-0.57,-0.02,1.2,-0.3,0.13,0.06,-0.15,0.02
0,-1.82,0.86,0.56,0.61,-0.58,-0.01,1.21,-0.26,0.13,0.06,-0.15,0.02
0,-1.81,0.86,0.56,0.63,-0.58,-0.01,1.22,-0.2,0.15,0.06,-0.15,0.02
0,-1.81,0.85,0.56,0.64,-0.59,-0.01,1.21,-0.18,0.13,0.05,-0.15,0.03
0,-1.8,0.85,0.56,0.66,-0.59,-0.01,1.19,-0.13,0.17,0.05,-0.15,0.03
0,-1.8,0.84,0.56,0.67,-0.59,-0.01,1.15,-0.07,0.14,0.04,-0.15,0.02
0,-1.79,0.84,0.56,0.69,-0.59,-0.01,1.11,0.01,0.13,0.04,-0.15,0.03
0,-1.78,0.83,0.57,0.7,-0.6,-0.01,1.06,0.01,0.14,0.03,-0.14,0.03
0,-1.77,0.83,0.57,0.71,-0.6,-0.01,1.02,0.03,0.16,0.03,-0.14,0.03
0,-1.77,0.82,0.57,0.73,-0.6,-0.0,1.02,0.09,0.16,0.02,-0.14,0.03
0,-1.76,0.82,0.57,0.74,-0.6,-0.0,0.99,0.16,0.14,0.02,-0.14,0.03
0,-1.76,0.81,0.57,0.76,-0.6,0.0,0.94,0.21,0.16,0.02,-0.14,0.03
0,-1.74,0.8,0.57,0.77,-0.6,0.0,0.93,0.27,0.18,0.01,-0.13,0.03
0,-1.74,0.8,0.57,0.78,-0.6,0.0,0.92,0.28,0.14,0.01,-0.13,0.03
0,-1.73,0.8,0.57,0.8,-0.59,0.01,0.9,0.35,0.17,0.0,-0.13,0.03
0,-1.73,0.79,0.57,0.81,-0.59,0.01,0.85,0.4,0.12,-0.0,-0.13,0.03
0,-1.72,0.79,0.57,0.82,-0.59,0.01,0.79,0.38,0.12,-0.01,-0.12,0.03
0,-1.71,0.78,0.57,0.83,-0.59,0.01,0.76,0.47,0.13,-0.01,-0.12,0.03
0,-1.7,0.78,0.57,0.84,-0.59,0.01,0.71,0.46,0.11,-0.01,-0.11,0.03
0,-1.69,0.77,0.57,0.85,-0.58,0.01,0.66,0.46,0.12,-0.02,-0.11,0.03
0,-1.69,0.77,0.57,0.86,-0.57,0.01,0.64,0.53,0.09,-0.02,-0.11,0.03
0,-1.68,0.76,0.57,0.87,-0.57,0.01,0.56,0.56,0.08,-0.02,-0.1,0.03
0,-1.67,0.76,0.57,0.88,-0.57,0.01,0.54,0.51,0.03,-0.02,-0.1,0.03
0,-1.66,0.75,0.57,0.89,-0.56,0.02,0.52,0.52,0.04,-0.02,-0.1,0.03
0,-1.65,0.75,0.57,0.9,-0.56,0.02,0.5,0.54,0.04,-0.02,-0.1,0.03
0,-1.65,0.74,0.57,0.91,-0.55,0.02,0.42,0.56,0.04,-0.03,-0.09,0.03
0,-1.64,0.74,0.57,0.92,-0.55,0.02,0.42,0.59,0.07,-0.03,-0.09,0.03
0,-1.62,0.73,0.57,0.93,-0.54,0.02,0.34,0.58,0.07,-0.03,-0.09,0.03
0,-1.62,0.73,0.57,0.94,-0.54,0.02,0.28,0.56,0.07,-0.03,-0.08,0.04
0,-1.61,0.73,0.57,0.94,-0.53,0.02,0.27,0.61,0.05,-0.03,-0.08,0.04
0,-1.6,0.72,0.57,0.95,-0.52,0.02,0.25,0.61,0.05,-0.03,-0.07,0.04
0,-1.59,0.72,0.57,0.95,-0.51,0.02,0.2,0.62,0.01,-0.03,-0.07,0.04
0,-1.58,0.71,0.57,0.96,-0.51,0.02,0.19,0.64,-0.02,-0.03,-0.07,0.04
0,-1.57,0.71,0.57,0.96,-0.5,0.02,0.16,0.68,-0.05,-0.03,-0.07,0.04
0,-1.57,0.71,0.57,0.97,-0.49,0.02,0.11,0.66,-0.02,-0.03,-0.06,0.04
0,-1.56,0.7,0.57,0.97,-0.49,0.02,0.04,0.68,-0.03,-0.03,-0.06,0.04
0,-1.55,0.7,0.57,0.98,-0.48,0.02,-0.01,0.63,-0.02,-0.03,-0.06,0.04
0,-1.54,0.69,0.57,0.98,-0.48,0.02,0.0,0.58,-0.04,-0.03,-0.05,0.04
0,-1.53,0.69,0.57,0.98,-0.47,0.02,-0.02,0.55,-0.07,-0.03,-0.05,0.04
0,-1.52,0.69,0.57,0.98,-0.46,0.02,-0.01,0.57,-0.05,-0.03,-0.05,0.04
0,-1.51,0.69,0.57,0.99,-0.46,0.02,-0.0,0.52,-0.06,-0.03,-0.05,0.04
0,-1.51,0.68,0.57,0.99,-0.45,0.02,0.0,0.49,-0.07,-0.02,-0.05,0.04
0,-1.49,0.68,0.57,0.99,-0.44,0.02,-0.0,0.47,-0.08,-0.02,-0.05,0.05
0,-1.48,0.67,0.57,1.0,-0.44,0.02,-0.02,0.46,-0.12,-0.02,-0.05,0.05
0,-1.48,0.67,0.57,1.0,-0.43,0.02,-0.03,0.45,-0.13,-0.01,-0.05,0.05
0,-1.47,0.67,0.58,1.0,-0.43,0.02,-0.06,0.41,-0.08,-0.01,-0.04,0.05
0,-1.45,0.66,0.58,1.0,-0.42,0.02,-0.08,0.4,-0.09,-0.01,-0.04,0.05
0,-1.45,0.66,0.58,1.0,-0.42,0.02,-0.1,0.38,-0.11,-0.01,-0.04,0.05
0,-1.44,0.66,0.58,1.0,-0.41,0.02,-0.13,0.37,-0.1,-0.0,-0.04,0.05
0,-1.43,0.66,0.58,1.0,-0.41,0.02,-0.15,0.33,-0.12,0.0,-0.03,0.05
0,-1.42,0.65,0.58,1.0,-0.4,0.02,-0.18,0.24,-0.08,0.01,-0.03,0.05
0,-1.42,0.65,0.58,1.0,-0.4,0.02,-0.21,0.17,-0.09,0.01,-0.03,0.05
0,-1.4,0.65,0.58,1.01,-0.4,0.01,-0.15,0.1,-0.08,0.02,-0.03,0.05
0,-1.39,0.64,0.58,1.01,-0.4,0.01,-0.14,0.04,-0.1,0.02,-0.03,0.06
0,-1.39,0.64,0.58,1.01,-0.39,0.01,-0.18,-0.0,-0.11,0.02,-0.03,0.06
0,-1.38,0.64,0.58,1.01,-0.39,0.01,-0.23,-0.03,-0.11,0.03,-0.03,0.06
0,-1.37,0.64,0.58,1.01,-0.39,0.01,-0.2,-0.04,-0.16,0.03,-0.03,0.06
0,-1.36,0.63,0.58,1.01,-0.39,0.01,-0.22,-0.07,-0.21,0.04,-0.02,0.06
0,-1.35,0.63,0.58,1.01,-0.39,0.01,-0.27,-0.12,-0.25,0.04,-0.02,0.06
0,-1.34,0.63,0.58,1.0,-0.39,0.01,-0.3,-0.14,-0.2,0.04,-0.02,0.06
0,-1.33,0.62,0.58,1.0,-0.39,0.0,-0.28,-0.15,-0.16,0.05,-0.02,0.06
0,-1.33,0.62,0.58,1.0,-0.39,0.0,-0.28,-0.22,-0.14,0.06,-0.02,0.06
0,-1.31,0.62,0.58,1.0,-0.4,-0.0,-0.27,-0.29,-0.13,0.06,-0.02,0.06
0,-1.3,0.61,0.58,1.0,-0.4,-0.0,-0.26,-0.37,-0.12,0.07,-0.02,0.06
0,-1.3,0.61,0.58,1.0,-0.4,-0.0,-0.26,-0.42,-0.15,0.07,-0.02,0.06
0,-1.29,0.61,0.58,1.0,-0.4,-0.01,-0.26,-0.46,-0.25,0.07,-0.02,0.06
0,-1.28,0.61,0.58,1.0,-0.41,-0.01,-0.25,-0.46,-0.24,0.08,-0.02,0.06
0,-1.27,0.6,0.58,1.0,-0.41,-0.01,-0.31,-0.48,-0.21,0.08,-0.02,0.06
0,-1.26,0.6,0.58,1.0,-0.42,-0.01,-0.31,-0.5,-0.17,0.09,-0.02,0.06
0,-1.25,0.6,0.58,0.99,-0.42,-0.02,-0.31,-0.57,-0.14,0.09,-0.02,0.06
0,-1.25,0.59,0.58,0.99,-0.43,-0.02,-0.3,-0.64,-0.07,0.1,-0.02,0.06
0,-1.24,0.59,0.58,0.99,-0.43,-0.02,-0.22,-0.7,-0.02,0.1,-0.02,0.06
0,-1.22,0.58,0.58,0.99,-0.44,-0.02,-0.24,-0.73,-0.05,0.11,-0.02,0.06
0,-1.22,0.58,0.58,0.99,-0.45,-0.02,-0.21,-0.79,-0.04,0.11,-0.02,0.06
0,-1.21,0.58,0.58,0.99,-0.45,-0.02,-0.2,-0.91,-0.06,0.12,-0.02,0.06
0,-1.2,0.57,0.57,0.99,-0.46,-0.02,-0.17,-0.94,-0.07,0.13,-0.03,0.06
0,-1.2,0.57,0.57,0.99,-0.47,-0.02,-0.17,-0.92,-0.1,0.13,-0.03,0.06
0,-1.18,0.57,0.57,0.99,-0.48,-0.02,-0.19,-0.95,-0.14,0.14,-0.03,0.06
0,-1.17,0.56,0.57,0.99,-0.49,-0.03,-0.19,-1.0,-0.15,0.14,-0.03,0.06
0,-1.17,0.56,0.57,0.99,-0.5,-0.03,-0.14,-1.06,-0.1,0.14,-0.03,0.06
0,-1.16,0.55,0.57,0.99,-0.51,-0.03,-0.13,-1.06,-0.05,0.15,-0.03,0.06
0,-1.15,0.55,0.57,0.99,-0.52,-0.03,-0.11,-1.12,-0.04,0.15,-0.04,0.06
0,-1.14,0.54,0.57,0.99,-0.53,-0.03,-0.06,-1.17,-0.04,0.16,-0.04,0.06
0,-1.13,0.54,0.57,0.99,-0.55,-0.03,-0.03,-1.2,-0.06,0.16,-0.04,0.06
0,-1.12,0.54,0.57,0.99,-0.56,-0.04,-0.02,-1.28,-0.04,0.16,-0.04,0.06
0,-1.12,0.53,0.57,0.99,-0.57,-0.04,-0.0,-1.29,-0.06,0.17,-0.04,0.06
0,-1.11,0.53,0.57,0.99,-0.58,-0.04,-0.01,-1.29,-0.0,0.17,-0.04,0.06
0,-1.09,0.52,0.57,1.0,-0.6,-0.04,0.02,-1.28,0.05,0.17,-0.05,0.06
0,-1.09,0.52,0.57,1.0,-0.61,-0.04,0.05,-1.29,0.04,0.17,-0.05,0.06
0,-1.08,0.51,0.57,1.0,-0.62,-0.04,0.04,-1.33,0.01,0.17,-0.05,0.06
0,-1.07,0.51,0.57,1.0,-0.64,-0.04,0.07,-1.31,-0.01,0.17,-0.05,0.06
0,-1.06,0.5,0.57,1.01,-0.65,-0.04,0.08,-1.3,-0.04,0.17,-0.05,0.06
0,-1.05,0.49,0.57,1.01,-0.67,-0.04,0.06,-1.31,-0.03,0.17,-0.05,0.06
0,-1.04,0.49,0.57,1.01,-0.68,-0.05,0.06,-1.33,-0.09,0.18,-0.05,0.06
0,-1.03,0.48,0.57,1.01,-0.69,-0.05,0.03,-1.32,-0.07,0.18,-0.05,0.06
0,-1.03,0.48,0.57,1.01,-0.7,-0.05,0.03,-1.3,-0.09,0.18,-0.05,0.06
0,-1.02,0.47,0.57,1.02,-0.72,-0.05,0.06,-1.31,-0.07,0.18,-0.05,0.06
0,-1.0,0.46,0.57,1.02,-0.73,-0.05,0.07,-1.33,-0.02,0.18,-0.05,0.06
0,-1.0,0.46,0.57,1.02,-0.75,-0.05,0.06,-1.29,-0.0,0.17,-0.05,0.06
0,-0.99,0.45,0.57,1.02,-0.76,-0.05,0.06,-1.28,0.04,0.17,-0.05,0.06
0,-0.98,0.45,0.57,1.03,-0.77,-0.05,0.06,-1.23,0.05,0.17,-0.05,0.06
0,-0.97,0.44,0.57,1.03,-0.79,-0.06,0.07,-1.22,0.09,0.17,-0.05,0.06
0,-0.96,0.43,0.57,1.03,-0.8,-0.06,0.07,-1.21,0.15,0.16,-0.05,0.07
0,-0.95,0.42,0.57,1.03,-0.81,-0.05,0.08,-1.17,0.14,0.16,-0.05,0.07
0,-0.94,0.42,0.57,1.04,-0.83,-0.05,0.12,-1.1,0.16,0.15,-0.06,0.07
0,-0.94,0.41,0.57,1.04,-0.84,-0.05,0.1,-1.06,0.19,0.15,-0.06,0.07
0,-0.93,0.4,0.57,1.04,-0.85,-0.05,0.11,-1.01,0.18,0.15,-0.05,0.07
0,-0.91,0.39,0.57,1.05,-0.87,-0.05,0.09,-0.94,0.19,0.14,-0.05,0.07
0,-0.91,0.39,0.57,1.05,-0.88,-0.05,0.05,-0.91,0.22,0.14,-0.05,0.07
0,-0.9,0.38,0.57,1.05,-0.88,-0.05,0.04,-0.87,0.22,0.13,-0.05,0.07
0,-0.89,0.37,0.57,1.05,-0.89,-0.04,0.07,-0.81,0.25,0.13,-0.05,0.07
0,-0.88,0.37,0.57,1.06,-0.9,-0.04,0.1,-0.74,0.25,0.12,-0.05,0.07
0,-0.87,0.35,0.57,1.06,-0.91,-0.04,0.07,-0.72,0.24,0.12,-0.05,0.07
0,-0.86,0.35,0.57,1.06,-0.92,-0.04,0.03,-0.69,0.24,0.12,-0.05,0.07
0,-0.85,0.34,0.57,1.06,-0.93,-0.03,0.05,-0.65,0.25,0.11,-0.05,0.07
0,-0.84,0.33,0.57,1.07,-0.94,-0.03,0.09,-0.61,0.22,0.11,-0.05,0.07
0,-0.84,0.33,0.57,1.07,-0.94,-0.03,0.08,-0.56,0.24,0.1,-0.05,0.08
0,-0.82,0.31,0.57,1.07,-0.95,-0.03,0.08,-0.5,0.26,0.1,-0.05,0.08
0,-0.81,0.31,0.57,1.08,-0.96,-0.03,0.04,-0.48,0.27,0.09,-0.05,0.08
0,-0.81,0.3,0.57,1.07,-0.96,-0.02,0.04,-0.44,0.22,0.09,-0.05,0.08
0,-0.8,0.29,0.57,1.08,-0.97,-0.02,0.03,-0.38,0.18,0.09,-0.05,0.08
0,-0.79,0.29,0.57,1.08,-0.97,-0.02,0.01,-0.31,0.13,0.08,-0.05,0.08
0,-0.77,0.27,0.57,1.08,-0.98,-0.02,-0.01,-0.26,0.13,0.08,-0.05,0.08
0,-0.77,0.27,0.57,1.09,-0.98,-0.01,-0.01,-0.21,0.1,0.07,-0.05,0.08
0,-0.76,0.26,0.57,1.08,-0.98,-0.01,0.01,-0.16,0.08,0.07,-0.05,0.08
0,-0.75,0.25,0.57,1.09,-0.99,-0.01,-0.01,-0.11,0.13,0.06,-0.05,0.09
0,-0.74,0.25,0.57,1.09,-0.99,-0.01,-0.06,-0.04,0.15,0.06,-0.05,0.09
0,-0.73,0.23,0.57,1.09,-0.99,-0.01,-0.05,-0.04,0.18,0.05,-0.05,0.09
0,-0.72,0.22,0.57,1.09,-0.99,-0.0,-0.04,-0.0,0.15,0.05,-0.05,0.09
0,-0.71,0.22,0.57,1.09,-0.99,-0.0,-0.04,0.02,0.17,0.05,-0.05,0.09
0,-0.7,0.21,0.57,1.09,-0.99,0.0,-0.06,0.04,0.17,0.04,-0.05,0.09
0,-0.69,0.2,0.57,1.09,-0.99,0.0,-0.08,0.11,0.11,0.04,-0.05,0.09
0,-0.68,0.19,0.57,1.1,-0.99,0.0,-0.11,0.14,0.05,0.04,-0.05,0.09
0,-0.67,0.18,0.57,1.1,-0.99,0.01,-0.11,0.16,0.03,0.04,-0.05,0.09
0,-0.66,0.18,0.57,1.09,-0.98,0.01,-0.1,0.18,0.05,0.03,-0.05,0.09
0,-0.65,0.17,0.57,1.09,-0.98,0.01,-0.11,0.15,0.06,0.03,-0.05,0.09
0,-0.65,0.16,0.57,1.09,-0.98,0.01,-0.12,0.18,0.07,0.03,-0.05,0.1
0,-0.63,0.15,0.57,1.09,-0.98,0.01,-0.13,0.22,0.04,0.03,-0.04,0.1
0,-0.62,0.14,0.57,1.1,-0.98,0.01,-0.12,0.21,0.06,0.03,-0.04,0.1
0,-0.61,0.14,0.57,1.09,-0.97,0.02,-0.14,0.21,0.0,0.03,-0.04,0.1
0,-0.61,0.13,0.58,1.09,-0.97,0.02,-0.19,0.26,-0.06,0.02,-0.04,0.1
0,-0.6,0.12,0.58,1.1,-0.97,0.02,-0.16,0.28,-0.08,0.02,-0.04,0.1
0,-0.58,0.11,0.58,1.1,-0.96,0.02,-0.17,0.27,-0.16,0.02,-0.04,0.1
0,-0.57,0.1,0.58,1.1,-0.96,0.02,-0.11,0.27,-0.09,0.02,-0.05,0.1
0,-0.57,0.1,0.58,1.1,-0.96,0.01,-0.07,0.23,-0.01,0.02,-0.05,0.1
0,-0.56,0.09,0.58,1.1,-0.95,0.02,-0.09,0.23,-0.04,0.02,-0.05,0.1
0,-0.55,0.08,0.58,1.1,-0.95,0.02,-0.1,0.22,-0.1,0.02,-0.04,0.1
0,-0.53,0.07,0.58,1.1,-0.95,0.01,-0.1,0.24,-0.19,0.02,-0.04,0.1
0,-0.53,0.06,0.58,1.1,-0.95,0.01,-0.14,0.27,-0.25,0.02,-0.04,0.1
0,-0.52,0.06,0.58,1.09,-0.94,0.01,-0.15,0.27,-0.2,0.02,-0.04,0.1
0,-0.51,0.05,0.58,1.1,-0.93,0.01,-0.08,0.18,-0.11,0.02,-0.04,0.1
0,-0.5,0.05,0.58,1.1,-0.93,0.01,-0.11,0.2,-0.17,0.02,-0.04,0.1
0,-0.49,0.03,0.58,1.1,-0.93,0.01,-0.15,0.22,-0.24,0.02,-0.04,0.1
0,-0.48,0.03,0.58,1.1,-0.93,0.01,-0.13,0.24,-0.22,0.03,-0.04,0.1
0,-0.47,0.02,0.58,1.09,-0.92,0.0,-0.14,0.28,-0.16,0.03,-0.04,0.11
0,-0.46,0.01,0.58,1.1,-0.92,0.0,-0.11,0.19,-0.13,0.03,-0.04,0.11
0,-0.45,0.01,0.58,1.1,-0.92,0.0,-0.13,0.15,-0.17,0.03,-0.04,0.11
0,-0.44,-0.0,0.58,1.1,-0.92,-0.0,-0.19,0.18,-0.26,0.03,-0.04,0.11
0,-0.43,-0.01,0.58,1.1,-0.91,-0.0,-0.16,0.23,-0.22,0.03,-0.04,0.11
0,-0.42,-0.02,0.58,1.09,-0.9,-0.0,-0.09,0.16,-0.19,0.03,-0.04,0.11
0,-0.41,-0.02,0.58,1.1,-0.91,-0.01,-0.06,0.11,-0.15,0.03,-0.04,0.11
0,-0.41,-0.03,0.58,1.1,-0.9,-0.01,-0.12,0.14,-0.23,0.03,-0.04,0.11
0,-0.39,-0.04,0.58,1.1,-0.9,-0.01,-0.14,0.24,-0.31,0.03,-0.04,0.11
0,-0.38,-0.05,0.58,1.1,-0.9,-0.01,-0.12,0.2,-0.21,0.03,-0.04,0.11
0,-0.37,-0.05,0.58,1.1,-0.89,-0.01,-0.09,0.15,-0.15,0.03,-0.04,0.11
0,-0.37,-0.06,0.58,1.1,-0.89,-0.01,-0.07,0.14,-0.23,0.03,-0.04,0.11
0,-0.36,-0.07,0.58,1.1,-0.89,-0.02,-0.08,0.13,-0.29,0.04,-0.04,0.11
0,-0.34,-0.08,0.58,1.1,-0.89,-0.02,-0.09,0.14,-0.26,0.04,-0.04,0.11
0,-0.33,-0.08,0.58,1.1,-0.89,-0.02,-0.07,0.15,-0.15,0.04,-0.04,0.11
0,-0.33,-0.09,0.58,1.1,-0.88,-0.02,-0.08,0.1,-0.12,0.04,-0.04,0.11
0,-0.32,-0.1,0.58,1.1,-0.88,-0.02,-0.11,0.06,-0.22,0.04,-0.04,0.11
0,-0.31,-0.1,0.58,1.1,-0.88,-0.03,-0.16,0.08,-0.26,0.04,-0.04,0.11
0,-0.29,-0.11,0.58,1.1,-0.88,-0.03,-0.1,0.07,-0.18,0.04,-0.04,0.11
0,-0.29,-0.12,0.58,1.09,-0.87,-0.03,-0.04,-0.02,-0.1,0.04,-0.04,0.12
0,-0.28,-0.12,0.58,1.1,-0.87,-0.03,-0.1,-0.01,-0.17,0.04,-0.04,0.12
0,-0.27,-0.13,0.58,1.1,-0.87,-0.03,-0.15,0.09,-0.25,0.05,-0.04,0.12
0,-0.26,-0.14,0.58,1.1,-0.87,-0.04,-0.11,0.05,-0.18,0.05,-0.04,0.12
0,-0.25,-0.15,0.58,1.1,-0.87,-0.04,-0.04,-0.02,-0.07,0.05,-0.04,0.12
0,-0.24,-0.15,0.58,1.1,-0.87,-0.04,-0.08,-0.03,-0.14,0.05,-0.04,0.12
0,-0.23,-0.16,0.58,1.1,-0.87,-0.04,-0.08,-0.0,-0.23,0.05,-0.04,0.12
0,-0.22,-0.17,0.58,1.1,-0.86,-0.04,-0.06,-0.02,-0.13,0.05,-0.04,0.12
0,-0.21,-0.17,0.58,1.1,-0.87,-0.05,-0.06,-0.06,-0.07,0.05,-0.04,0.12
0,-0.2,-0.18,0.58,1.1,-0.87,-0.05,-0.09,-0.01,-0.13,0.05,-0.04,0.12
0,-0.19,-0.19,0.57,1.1,-0.87,-0.05,-0.08,-0.02,-0.21,0.05,-0.04,0.12
0,-0.18,-0.2,0.57,1.1,-0.87,-0.05,-0.05,0.03,-0.19,0.05,-0.04,0.12
0,-0.17,-0.2,0.57,1.1,-0.87,-0.05,-0.05,0.0,-0.13,0.05,-0.04,0.12
0,-0.17,-0.21,0.57,1.1,-0.87,-0.05,-0.02,-0.06,-0.06,0.05,-0.04,0.12
0,-0.15,-0.22,0.57,1.11,-0.87,-0.06,-0.08,-0.09,-0.08,0.05,-0.04,0.12
0,-0.14,-0.22,0.57,1.11,-0.87,-0.06,-0.14,-0.04,-0.14,0.05,-0.04,0.12
0,-0.13,-0.23,0.57,1.11,-0.86,-0.06,-0.11,-0.0,-0.06,0.05,-0.04,0.12
0,-0.13,-0.24,0.57,1.11,-0.87,-0.06,-0.07,-0.1,-0.03,0.06,-0.04,0.12
0,-0.12,-0.24,0.57,1.11,-0.87,-0.06,-0.09,-0.16,-0.02,0.06,-0.04,0.12
0,-0.1,-0.25,0.57,1.11,-0.87,-0.06,-0.13,-0.14,-0.08,0.06,-0.04,0.12
0,-0.09,-0.26,0.57,1.11,-0.87,-0.06,-0.12,-0.05,-0.11,0.06,-0.04,0.12
0,-0.09,-0.27,0.57,1.11,-0.86,-0.06,-0.09,-0.12,-0.03,0.06,-0.04,0.12
0,-0.08,-0.27,0.57,1.11,-0.87,-0.06,-0.1,-0.1,0.05,0.06,-0.04,0.12
0,-0.07,-0.28,0.57,1.11,-0.87,-0.06,-0.13,-0.08,0.0,0.06,-0.04,0.12
0,-0.05,-0.29,0.57,1.11,-0.87,-0.06,-0.14,-0.06,-0.06,0.05,-0.04,0.12
0,-0.05,-0.3,0.57,1.11,-0.87,-0.06,-0.18,-0.06,-0.03,0.05,-0.04,0.12
0,-0.04,-0.3,0.57,1.11,-0.87,-0.06,-0.13,-0.11,0.07,0.05,-0.03,0.12
0,-0.03,-0.31,0.57,1.11,-0.87,-0.06,-0.11,-0.15,0.09,0.05,-0.03,0.12
0,-0.02,-0.31,0.57,1.11,-0.87,-0.06,-0.17,-0.11,0.03,0.05,-0.03,0.12
0,-0.01,-0.32,0.57,1.11,-0.87,-0.06,-0.18,-0.06,-0.03,0.05,-0.03,0.12
0,0.0,-0.33,0.57,1.11,-0.87,-0.06,-0.15,-0.06,0.03,0.05,-0.03,0.12
0,0.01,-0.34,0.57,1.11,-0.87,-0.06,-0.1,-0.09,0.12,0.05,-0.03,0.12
0,0.02,-0.34,0.56,1.11,-0.87,-0.06,-0.13,-0.1,0.13,0.05,-0.04,0.12
0,0.03,-0.35,0.56,1.11,-0.87,-0.06,-0.14,-0.09,0.01,0.05,-0.03,0.12
0,0.04,-0.36,0.56,1.11,-0.87,-0.06,-0.18,-0.07,-0.03,0.05,-0.03,0.12
0,0.05,-0.37,0.56,1.11,-0.87,-0.06,-0.18,-0.06,0.02,0.05,-0.03,0.12
0,0.06,-0.37,0.56,1.11,-0.86,-0.06,-0.15,-0.13,0.09,0.05,-0.03,0.12
0,0.07,-0.38,0.56,1.11,-0.87,-0.06,-0.14,-0.15,0.09,0.06,-0.03,0.12
0,0.07,-0.38,0.56,1.11,-0.87,-0.06,-0.18,-0.14,0.03,0.06,-0.03,0.12
0,0.09,-0.4,0.56,1.11,-0.87,-0.06,-0.21,-0.05,-0.01,0.06,-0.03,0.12
0,0.1,-0.4,0.56,1.11,-0.87,-0.06,-0.18,-0.07,-0.01,0.06,-0.03,0.12
0,0.11,-0.41,0.56,1.1,-0.86,-0.06,-0.09,-0.1,0.11,0.06,-0.03,0.12
0,0.11,-0.41,0.56,1.1,-0.87,-0.06,-0.07,-0.15,0.12,0.06,-0.03,0.12
0,0.12,-0.42,0.56,1.11,-0.87,-0.06,-0.1,-0.14,0.06,0.06,-0.03,0.12
0,0.14,-0.43,0.56,1.11,-0.87,-0.06,-0.16,-0.06,-0.04,0.06,-0.03,0.12
0,0.15,-0.44,0.56,1.1,-0.86,-0.06,-0.17,-0.09,0.04,0.06,-0.03,0.12
0,0.15,-0.44,0.56,1.1,-0.87,-0.06,-0.15,-0.11,0.15,0.06,-0.03,0.12
0,0.16,-0.45,0.56,1.1,-0.87,-0.05,-0.15,-0.11,0.09,0.06,-0.03,0.12
0,0.17,-0.45,0.56,1.1,-0.87,-0.05,-0.14,-0.1,-0.0,0.06,-0.03,0.12
0,0.19,-0.47,0.56,1.1,-0.87,-0.05,-0.11,-0.07,-0.07,0.06,-0.04,0.12
0,0.19,-0.47,0.56,1.1,-0.87,-0.05,-0.09,-0.08,0.04,0.06,-0.04,0.12
0,0.2,-0.48,0.56,1.1,-0.86,-0.05,-0.11,-0.12,0.13,0.06,-0.04,0.12
0,0.21,-0.48,0.56,1.1,-0.87,-0.05,-0.09,-0.15,0.1,0.06,-0.04,0.12
0,0.22,-0.49,0.56,1.1,-0.86,-0.05,-0.14,-0.09,0.01,0.06,-0.04,0.12
0,0.23,-0.5,0.56,1.1,-0.87,-0.05,-0.13,-0.06,-0.01,0.06,-0.04,0.12
0,0.24,-0.51,0.56,1.1,-0.87,-0.05,-0.13,-0.06,0.03,0.06,-0.04,0.12
0,0.25,-0.51,0.56,1.1,-0.87,-0.05,-0.04,-0.12,0.12,0.06,-0.04,0.12
0,0.26,-0.52,0.55,1.1,-0.86,-0.05,-0.1,-0.17,0.07,0.06,-0.04,0.12
0,0.26,-0.52,0.55,1.1,-0.87,-0.05,-0.12,-0.15,-0.01,0.06,-0.04,0.12
0,0.28,-0.54,0.55,1.1,-0.87,-0.05,-0.1,-0.08,-0.02,0.06,-0.04,0.12
0,0.29,-0.54,0.55,1.1,-0.87,-0.05,-0.08,-0.11,0.07,0.06,-0.04,0.12
0,0.3,-0.55,0.55,1.1,-0.87,-0.05,-0.05,-0.15,0.1,0.06,-0.04,0.12
0,0.3,-0.55,0.55,1.1,-0.87,-0.05,-0.04,-0.14,0.12,0.06,-0.04,0.12
0,0.31,-0.56,0.55,1.1,-0.87,-0.05,-0.07,-0.14,0.02,0.06,-0.04,0.11
0,0.33,-0.57,0.55,1.1,-0.87,-0.05,-0.1,-0.15,-0.0,0.06,-0.04,0.11
0,0.34,-0.58,0.55,1.09,-0.87,-0.05,-0.08,-0.14,0.04,0.06,-0.04,0.11
0,0.34,-0.58,0.55,1.1,-0.87,-0.05,-0.05,-0.24,0.15,0.06,-0.04,0.11
0,0.35,-0.59,0.55,1.1,-0.87,-0.04,-0.04,-0.24,0.14,0.06,-0.04,0.11
0,0.36,-0.6,0.55,1.1,-0.87,-0.04,-0.09,-0.17,0.05,0.06,-0.04,0.11
0,0.38,-0.61,0.55,1.1,-0.87,-0.04,-0.12,-0.12,0.04,0.06,-0.04,0.11
0,0.38,-0.61,0.55,1.1,-0.87,-0.04,-0.07,-0.12,0.05,0.06,-0.04,0.11
0,0.39,-0.62,0.55,1.1,-0.87,-0.04,-0.02,-0.14,0.12,0.06,-0.04,0.11
0,0.4,-0.63,0.55,1.1,-0.87,-0.04,-0.05,-0.18,0.04,0.06,-0.05,0.11
0,0.41,-0.63,0.55,1.1,-0.87,-0.04,-0.05,-0.17,-0.0,0.06,-0.05,0.11
0,0.42,-0.64,0.55,1.1,-0.88,-0.04,-0.05,-0.13,-0.02,0.06,-0.05,0.11
0,0.43,-0.65,0.55,1.1,-0.88,-0.04,-0.02,-0.15,0.06,0.06,-0.05,0.11
0,0.44,-0.66,0.55,1.1,-0.87,-0.04,0.0,-0.16,0.13,0.06,-0.05,0.11
0,0.45,-0.66,0.55,1.1,-0.87,-0.04,0.03,-0.21,0.11,0.06,-0.05,0.11
0,0.46,-0.67,0.55,1.1,-0.87,-0.04,0.01,-0.18,0.03,0.06,-0.05,0.1
0,0.47,-0.68,0.55,1.1,-0.88,-0.04,0.01,-0.13,-0.0,0.06,-0.05,0.1
0,0.48,-0.69,0.55,1.1,-0.88,-0.04,0.01,-0.12,-0.0,0.06,-0.05,0.1
0,0.49,-0.69,0.55,1.1,-0.88,-0.04,0.02,-0.14,0.06,0.06,-0.05,0.1
0,0.5,-0.7,0.55,1.1,-0.88,-0.04,0.02,-0.21,0.09,0.06,-0.05,0.1
0,0.5,-0.7,0.55,1.11,-0.88,-0.04,0.02,-0.23,0.12,0.06,-0.05,0.1
0,0.52,-0.72,0.55,1.11,-0.88,-0.04,0.02,-0.23,0.12,0.06,-0.05,0.1
0,0.53,-0.72,0.55,1.11,-0.88,-0.04,-0.0,-0.18,0.01,0.07,-0.05,0.1
0,0.54,-0.73,0.55,1.12,-0.89,-0.04,-0.02,-0.15,0.0,0.06,-0.05,0.1
0,0.54,-0.73,0.55,1.1,-0.88,-0.04,-0.03,-0.23,0.08,0.06,-0.05,0.1
0,0.55,-0.74,0.55,1.11,-0.88,-0.04,0.0,-0.27,0.1,0.06,-0.05,0.1
0,0.57,-0.75,0.55,1.11,-0.88,-0.04,0.0,-0.21,0.06,0.06,-0.05,0.1
0,0.58,-0.76,0.55,1.11,-0.88,-0.04,-0.03,-0.12,-0.02,0.06,-0.05,0.1
0,0.58,-0.77,0.55,1.11,-0.88,-0.04,-0.03,-0.11,-0.03,0.06,-0.05,0.09
0,0.59,-0.77,0.55,1.11,-0.88,-0.04,0.01,-0.17,0.05,0.06,-0.05,0.09
0,0.6,-0.78,0.55,1.11,-0.88,-0.04,0.0,-0.25,0.1,0.06,-0.05,0.09
0,0.62,-0.79,0.55,1.11,-0.89,-0.04,0.0,-0.2,0.08,0.06,-0.05,0.09
0,0.63,-0.8,0.55,1.11,-0.88,-0.03,-0.01,-0.15,0.03,0.06,-0.05,0.09
0,0.63,-0.8,0.55,1.11,-0.89,-0.03,-0.05,-0.14,0.02,0.06,-0.05,0.09
0,0.64,-0.81,0.54,1.12,-0.89,-0.03,-0.03,-0.11,0.01,0.06,-0.05,0.09
0,0.65,-0.81,0.54,1.12,-0.89,-0.03,-0.06,-0.14,0.06,0.06,-0.05,0.09
0,0.67,-0.83,0.54,1.12,-0.89,-0.03,-0.04,-0.18,0.12,0.06,-0.05,0.09
0,0.67,-0.83,0.54,1.12,-0.89,-0.03,-0.06,-0.15,0.1,0.06,-0.05,0.09
0,0.68,-0.84,0.54,1.12,-0.89,-0.03,-0.07,-0.15,0.01,0.06,-0.04,0.09
0,0.69,-0.85,0.54,1.12,-0.89,-0.03,-0.09,-0.14,0.02,0.06,-0.04,0.09
0,0.7,-0.85,0.54,1.12,-0.9,-0.03,-0.09,-0.13,0.04,0.06,-0.04,0.09
0,0.72,-0.86,0.54,1.12,-0.9,-0.03,-0.06,-0.17,0.08,0.06,-0.04,0.09
0,0.72,-0.87,0.54,1.12,-0.9,-0.03,-0.03,-0.22,0.14,0.06,-0.04,0.08
0,0.73,-0.88,0.54,1.12,-0.9,-0.03,-0.08,-0.22,0.05,0.06,-0.04,0.08
0,0.74,-0.88,0.54,1.12,-0.9,-0.03,-0.11,-0.19,0.01,0.07,-0.04,0.08
0,0.75,-0.89,0.54,1.12,-0.9,-0.03,-0.08,-0.17,0.01,0.07,-0.04,0.08
0,0.76,-0.9,0.54,1.12,-0.9,-0.03,-0.09,-0.17,0.03,0.07,-0.04,0.08
0,0.77,-0.91,0.54,1.12,-0.91,-0.03,-0.08,-0.2,0.08,0.07,-0.04,0.08
0,0.78,-0.92,0.54,1.12,-0.91,-0.03,-0.08,-0.21,0.1,0.06,-0.04,0.08
0,0.79,-0.92,0.54,1.12,-0.91,-0.03,-0.06,-0.17,0.01,0.06,-0.04,0.08
0,0.8,-0.93,0.54,1.13,-0.91,-0.03,-0.11,-0.15,-0.04,0.06,-0.04,0.08
0,0.81,-0.94,0.54,1.13,-0.91,-0.03,-0.11,-0.15,-0.01,0.06,-0.04,0.08
0,0.82,-0.95,0.54,1.13,-0.91,-0.03,-0.1,-0.19,0.04,0.06,-0.04,0.08
0,0.83,-0.95,0.54,1.12,-0.92,-0.03,-0.11,-0.2,0.09,0.06,-0.04,0.08
0,0.84,-0.96,0.54,1.12,-0.92,-0.03,-0.13,-0.2,0.06,0.06,-0.04,0.08
0,0.85,-0.97,0.54,1.13,-0.92,-0.03,-0.15,-0.18,-0.03,0.06,-0.04,0.08
0,0.86,-0.98,0.54,1.13,-0.92,-0.03,-0.17,-0.1,-0.09,0.06,-0.04,0.08
0,0.87,-0.99,0.54,1.13,-0.92,-0.03,-0.15,-0.1,-0.0,0.06,-0.04,0.08
0,0.88,-0.99,0.54,1.12,-0.92,-0.03,-0.14,-0.12,0.08,0.06,-0.04,0.08
0,0.89,-1.0,0.54,1.12,-0.92,-0.02,-0.16,-0.15,0.02,0.06,-0.04,0.08
0,0.89,-1.0,0.54,1.12,-0.92,-0.02,-0.19,-0.09,-0.04,0.06,-0.04,0.08
0,0.91,-1.02,0.54,1.12,-0.93,-0.02,-0.24,-0.03,-0.09,0.05,-0.03,0.08
0,0.92,-1.02,0.54,1.12,-0.93,-0.03,-0.17,-0.02,-0.07,0.05,-0.03,0.08
0,0.93,-1.03,0.54,1.12,-0.92,-0.03,-0.19,-0.06,0.04,0.05,-0.03,0.07
0,0.94,-1.04,0.54,1.12,-0.92,-0.03,-0.19,-0.04,0.05,0.04,-0.03,0.07
0,0.94,-1.04,0.54,1.12,-0.92,-0.02,-0.23,0.06,0.01,0.04,-0.03,0.07
0,0.96,-1.06,0.54,1.12,-0.93,-0.02,-0.23,0.12,-0.01,0.03,-0.03,0.07
0,0.97,-1.06,0.54,1.12,-0.92,-0.02,-0.24,0.15,0.05,0.03,-0.03,0.07
0,0.98,-1.07,0.54,1.12,-0.92,-0.02,-0.21,0.16,0.11,0.02,-0.03,0.07
0,0.98,-1.07,0.54,1.12,-0.92,-0.02,-0.22,0.24,0.04,0.02,-0.03,0.07
0,0.99,-1.08,0.54,1.12,-0.92,-0.02,-0.27,0.3,-0.06,0.01,-0.03,0.07
0,1.01,-1.09,0.54,1.12,-0.92,-0.02,-0.29,0.39,-0.07,0.01,-0.03,0.07
0,1.02,-1.1,0.54,1.11,-0.91,-0.02,-0.28,0.46,-0.04,0.0,-0.03,0.07
0,1.02,-1.11,0.54,1.11,-0.9,-0.02,-0.25,0.43,0.04,-0.0,-0.03,0.07
0,1.03,-1.11,0.54,1.11,-0.9,-0.02,-0.24,0.45,0.05,-0.01,-0.03,0.07
0,1.04,-1.12,0.54,1.11,-0.89,-0.02,-0.26,0.55,-0.01,-0.01,-0.03,0.07
0,1.06,-1.13,0.54,1.11,-0.89,-0.02,-0.26,0.62,-0.06,-0.02,-0.03,0.07
0,1.06,-1.14,0.54,1.11,-0.88,-0.02,-0.27,0.67,-0.03,-0.02,-0.03,0.07
0,1.07,-1.14,0.54,1.1,-0.87,-0.02,-0.25,0.64,0.08,-0.03,-0.03,0.07
0,1.08,-1.15,0.54,1.1,-0.87,-0.02,-0.27,0.74,0.01,-0.03,-0.03,0.07
0,1.09,-1.15,0.54,1.1,-0.86,-0.02,-0.29,0.81,-0.04,-0.04,-0.03,0.07
0,1.1,-1.17,0.54,1.1,-0.85,-0.02,-0.33,0.85,-0.07,-0.04,-0.03,0.07
0,1.11,-1.17,0.54,1.1,-0.85,-0.02,-0.3,0.89,-0.05,-0.05,-0.03,0.07
0,1.12,-1.18,0.54,1.09,-0.83,-0.02,-0.28,0.94,-0.04,-0.05,-0.03,0.07
0,1.13,-1.18,0.54,1.09,-0.82,-0.02,-0.27,0.89,0.04,-0.06,-0.03,0.07
0,1.14,-1.19,0.54,1.09,-0.81,-0.02,-0.33,0.97,-0.05,-0.06,-0.03,0.07
0,1.15,-1.2,0.54,1.09,-0.8,-0.02,-0.29,1.04,-0.09,-0.07,-0.03,0.07
0,1.16,-1.2,0.54,1.09,-0.78,-0.02,-0.25,1.08,-0.05,-0.07,-0.03,0.07
0,1.17,-1.21,0.54,1.09,-0.78,-0.02,-0.26,1.06,0.01,-0.07,-0.03,0.07
0,1.17,-1.21,0.54,1.09,-0.77,-0.02,-0.27,1.1,-0.01,-0.08,-0.03,0.07
0,1.18,-1.22,0.54,1.08,-0.76,-0.01,-0.28,1.14,-0.1,-0.08,-0.03,0.07
0,1.2,-1.23,0.54,1.08,-0.74,-0.02,-0.32,1.2,-0.15,-0.08,-0.03,0.07
0,1.2,-1.23,0.54,1.08,-0.73,-0.02,-0.34,1.2,-0.16,-0.09,-0.03,0.07
0,1.21,-1.24,0.54,1.07,-0.72,-0.02,-0.3,1.19,-0.07,-0.09,-0.03,0.07
0,1.22,-1.24,0.54,1.07,-0.7,-0.02,-0.35,1.19,-0.05,-0.09,-0.02,0.07
0,1.23,-1.24,0.54,1.07,-0.69,-0.02,-0.41,1.19,-0.04,-0.09,-0.02,0.07
0,1.24,-1.25,0.54,1.07,-0.68,-0.02,-0.46,1.25,-0.15,-0.09,-0.02,0.07
0,1.25,-1.26,0.54,1.06,-0.65,-0.02,-0.4,1.29,-0.11,-0.1,-0.02,0.06
0,1.26,-1.26,0.54,1.06,-0.65,-0.02,-0.43,1.24,-0.06,-0.1,-0.01,0.06
0,1.27,-1.26,0.54,1.06,-0.63,-0.02,-0.46,1.26,-0.09,-0.1,-0.01,0.06
0,1.27,-1.27,0.54,1.05,-0.62,-0.02,-0.49,1.27,-0.16,-0.1,-0.01,0.06
0,1.29,-1.28,0.54,1.05,-0.6,-0.02,-0.54,1.29,-0.17,-0.1,-0.01,0.06
0,1.3,-1.28,0.54,1.04,-0.58,-0.02,-0.55,1.28,-0.08,-0.1,-0.0,0.06
0,1.3,-1.28,0.54,1.04,-0.57,-0.02,-0.56,1.21,-0.04,-0.1,-0.0,0.06
0,1.31,-1.29,0.54,1.03,-0.56,-0.02,-0.61,1.22,-0.08,-0.1,0.0,0.06
0,1.32,-1.29,0.54,1.03,-0.54,-0.02,-0.68,1.27,-0.17,-0.1,0.01,0.06
0,1.33,-1.29,0.54,1.02,-0.53,-0.02,-0.69,1.26,-0.19,-0.1,0.01,0.06
0,1.34,-1.3,0.54,1.02,-0.51,-0.02,-0.7,1.21,-0.07,-0.1,0.02,0.06
0,1.35,-1.3,0.54,1.0,-0.48,-0.02,-0.74,1.21,-0.05,-0.1,0.02,0.06
0,1.35,-1.3,0.54,1.0,-0.48,-0.02,-0.8,1.22,-0.15,-0.1,0.02,0.06
0,1.36,-1.31,0.54,1.0,-0.47,-0.02,-0.85,1.25,-0.21,-0.1,0.03,0.06
0,1.37,-1.31,0.54,0.99,-0.45,-0.03,-0.86,1.2,-0.09,-0.1,0.03,0.06
0,1.38,-1.31,0.54,0.97,-0.42,-0.03,-0.87,1.16,-0.01,-0.1,0.04,0.05
0,1.39,-1.32,0.53,0.96,-0.41,-0.03,-0.92,1.14,-0.01,-0.1,0.04,0.05
0,1.4,-1.32,0.53,0.96,-0.41,-0.03,-1.01,1.15,-0.14,-0.1,0.04,0.05
0,1.4,-1.32,0.53,0.95,-0.4,-0.03,-1.03,1.13,-0.15,-0.09,0.05,0.05
0,1.42,-1.32,0.53,0.94,-0.38,-0.03,-1.05,1.09,-0.08,-0.09,0.05,0.05
0,1.42,-1.33,0.53,0.93,-0.37,-0.03,-1.06,1.04,-0.05,-0.09,0.06,0.05
0,1.43,-1.33,0.53,0.91,-0.34,-0.03,-1.06,0.99,-0.02,-0.09,0.06,0.05
0,1.43,-1.33,0.53,0.91,-0.34,-0.03,-1.13,0.98,-0.08,-0.09,0.06,0.04
0,1.44,-1.33,0.53,0.89,-0.32,-0.03,-1.17,1.0,-0.13,-0.08,0.07,0.04
0,1.45,-1.33,0.53,0.89,-0.32,-0.03,-1.22,0.95,-0.12,-0.08,0.07,0.04
0,1.46,-1.34,0.53,0.88,-0.3,-0.03,-1.22,0.88,-0.05,-0.08,0.07,0.04
0,1.47,-1.34,0.53,0.86,-0.29,-0.03,-1.22,0.82,-0.04,-0.08,0.08,0.04
0,1.47,-1.34,0.53,0.85,-0.28,-0.03,-1.26,0.8,-0.07,-0.07,0.08,0.03
0,1.48,-1.34,0.53,0.83,-0.26,-0.03,-1.27,0.8,-0.11,-0.07,0.08,0.03
0,1.49,-1.34,0.53,0.83,-0.26,-0.03,-1.3,0.78,-0.12,-0.07,0.09,0.03
0,1.49,-1.34,0.53,0.83,-0.26,-0.03,-1.3,0.78,-0.12,-0.07,0.09,0.03
0,1.5,-1.34,0.53,0.81,-0.25,-0.03,-1.3,0.78,-0.12,-0.07,0.09,0.03
0,1.5,-1.34,0.53,0.81,-0.25,-0.03,-1.3,0.78,-0.12,-0.07,0.09,0.03
0,1.5,-1.34,0.53,0.81,-0.25,-0.03,-1.3,0.78,-0.12,-0.07,0.09,0.03
0,1.5,-1.34,0.53,0.81,-0.25,-0.03,-1.3,0.78,-0.12,-0.07,0.09,0.03
0,1.51,-1.34,0.53,0.81,-0.25,-0.03,-1.32,0.75,-0.05,-0.07,0.09,0.03
0,1.53,-1.35,0.52,0.8,-0.23,-0.03,-1.36,0.67,-0.0,-0.06,0.09,0.03
0,1.53,-1.35,0.52,0.8,-0.23,-0.03,-1.36,0.67,-0.0,-0.06,0.09,0.03
0,1.53,-1.35,0.52,0.8,-0.23,-0.03,-1.36,0.67,-0.0,-0.06,0.09,0.03
0,1.55,-1.35,0.52,0.78,-0.22,-0.03,-1.39,0.6,-0.01,-0.05,0.09,0.02
0,1.55,-1.35,0.52,0.76,-0.21,-0.03,-1.39,0.51,-0.02,-0.05,0.1,0.02
0,1.56,-1.35,0.52,0.73,-0.19,-0.03,-1.42,0.5,-0.11,-0.04,0.1,0.01
0,1.56,-1.35,0.52,0.69,-0.17,-0.03,-1.42,0.43,0.01,-0.03,0.11,0.01
0,1.57,-1.35,0.52,0.61,-0.12,-0.03,-1.49,0.31,0.01,-0.02,0.11,-0.0
0,1.58,-1.35,0.52,0.58,-0.11,-0.04,-1.49,0.25,-0.04,-0.01,0.11,-0.01
0,1.58,-1.35,0.52,0.57,-0.11,-0.04,-1.49,0.26,-0.03,-0.01,0.11,-0.01
0,1.58,-1.35,0.52,0.55,-0.1,-0.04,-1.45,0.16,-0.03,-0.0,0.11,-0.02
0,1.59,-1.35,0.52,0.53,-0.1,-0.04,-1.4,0.1,0.01,0.0,0.11,-0.02
0,1.59,-1.35,0.52,0.53,-0.1,-0.04,-1.39,0.03,-0.02,0.01,0.11,-0.02
0,1.6,-1.35,0.51,0.51,-0.1,-0.04,-1.37,-0.03,-0.04,0.01,0.1,-0.03
0,1.6,-1.35,0.51,0.5,-0.1,-0.04,-1.33,-0.06,-0.03,0.02,0.1,-0.03
0,1.6,-1.36,0.51,0.47,-0.09,-0.04,-1.3,-0.1,-0.03,0.02,0.1,-0.03
0,1.61,-1.36,0.51,0.47,-0.09,-0.04,-1.24,-0.13,-0.02,0.03,0.1,-0.04
0,1.61,-1.36,0.51,0.46,-0.1,-0.05,-1.19,-0.18,-0.04,0.03,0.09,-0.04
0,1.62,-1.36,0.51,0.45,-0.1,-0.05,-1.17,-0.2,-0.04,0.04,0.09,-0.04
0,1.62,-1.36,0.51,0.43,-0.09,-0.05,-1.14,-0.26,0.0,0.04,0.09,-0.05
0,1.62,-1.36,0.51,0.43,-0.1,-0.05,-1.11,-0.25,0.02,0.04,0.09,-0.05
0,1.63,-1.36,0.51,0.4,-0.1,-0.05,-1.13,-0.31,0.04,0.05,0.09,-0.05
0,1.63,-1.36,0.51,0.4,-0.1,-0.05,-1.1,-0.36,0.05,0.05,0.08,-0.05
0,1.63,-1.36,0.51,0.38,-0.11,-0.05,-1.07,-0.33,0.06,0.05,0.08,-0.06
1,-1.98,1.03,0.58,-0.03,-0.07,0.0,0.17,0.47,-0.11,-0.04,-0.02,-0.07
1,-1.98,1.03,0.58,-0.02,-0.07,0.0,0.09,0.44,-0.1,-0.04,-0.01,-0.07
1,-1.98,1.03,0.58,-0.02,-0.06,-0.0,0.1,0.41,-0.1,-0.03,-0.01,-0.07
1,-1.98,1.03,0.58,-0.02,-0.06,-0.0,0.08,0.39,-0.1,-0.03,-0.01,-0.07
1,-1.98,1.03,0.58,-0.02,-0.05,-0.0,0.09,0.38,-0.11,-0.03,-0.01,-0.07
1,-1.98,1.03,0.58,-0.02,-0.05,-0.0,0.09,0.35,-0.08,-0.03,-0.01,-0.07
1,-1.98,1.03,0.58,-0.01,-0.05,-0.01,0.07,0.36,-0.05,-0.03,-0.01,-0.07
1,-1.98,1.03,0.58,-0.01,-0.04,-0.01,0.06,0.3,-0.06,-0.02,-0.01,-0.07
1,-1.98,1.03,0.58,-0.01,-0.04,-0.01,0.04,0.31,-0.08,-0.02,-0.01,-0.06
1,-1.98,1.03,0.58,-0.01,-0.04,-0.01,0.02,0.29,-0.08,-0.02,-0.01,-0.06
1,-1.98,1.03,0.58,-0.0,-0.03,-0.01,0.06,0.29,-0.06,-0.02,-0.01,-0.06
1,-1.98,1.03,0.58,-0.0,-0.03,-0.01,0.04,0.24,-0.0,-0.02,-0.0,-0.06
1,-1.98,1.03,0.58,-0.0,-0.03,-0.01,-0.04,0.18,0.01,-0.02,-0.0,-0.06
1,-1.98,1.03,0.58,-0.0,-0.02,-0.01,-0.03,0.19,0.02,-0.01,-0.0,-0.06
1,-1.98,1.03,0.58,0.0,-0.02,-0.01,0.02,0.18,-0.01,-0.01,-0.0,-0.06
1,-1.98,1.03,0.58,0.0,-0.02,-0.01,0.02,0.19,-0.01,-0.01,0.0,-0.06
1,-1.98,1.03,0.58,0.0,-0.01,-0.01,-0.04,0.16,-0.01,-0.01,0.0,-0.06
1,-1.98,1.03,0.58,0.0,-0.01,-0.01,-0.09,0.18,0.01,-0.01,0.0,-0.06
1,-1.98,1.03,0.58,0.0,-0.01,-0.01,-0.14,0.15,0.02,-0.0,0.0,-0.06
1,-1.98,1.03,0.58,0.0,-0.01,-0.01,-0.11,0.13,0.03,-0.0,0.01,-0.06
1,-1.98,1.03,0.58,0.01,-0.01,-0.01,-0.07,0.13,-0.01,-0.0,0.01,-0.06
1,-1.98,1.03,0.58,0.01,-0.01,-0.01,-0.09,0.09,-0.01,0.0,0.01,-0.06
1,-1.98,1.03,0.58,0.01,-0.01,-0.01,-0.1,0.01,0.01,0.0,0.01,-0.06
1,-1.98,1.03,0.58,0.01,-0.0,-0.01,-0.15,0.03,0.02,0.0,0.01,-0.06
1,-1.97,1.03,0.58,0.01,-0.0,-0.01,-0.19,-0.04,0.02,0.01,0.01,-0.06
1,-1.97,1.03,0.57,0.01,-0.0,-0.01,-0.17,-0.02,0.04,0.01,0.01,-0.06
1,-1.97,1.03,0.57,0.0,-0.0,-0.01,-0.12,-0.03,0.05,0.01,0.01,-0.06
1,-1.97,1.03,0.57,0.0,-0.0,-0.01,-0.15,-0.05,0.02,0.01,0.01,-0.06
1,-1.97,1.03,0.57,0.0,-0.0,-0.01,-0.14,-0.05,0.01,0.01,0.01,-0.06
1,-1.97,1.03,0.57,0.0,-0.0,-0.01,-0.17,-0.11,0.02,0.02,0.01,-0.06
1,-1.97,1.03,0.57,0.0,-0.0,-0.01,-0.21,-0.14,0.02,0.02,0.01,-0.05
1,-1.97,1.03,0.57,0.0,-0.0,-0.01,-0.2,-0.1,0.01,0.02,0.01,-0.05
1,-1.97,1.03,0.57,0.0,-0.01,-0.01,-0.17,-0.16,0.01,0.02,0.01,-0.05
1,-1.97,1.03,0.57,0.0,-0.01,-0.01,-0.15,-0.13,0.04,0.02,0.01,-0.05
1,-1.97,1.03,0.57,0.0,-0.01,-0.01,-0.12,-0.19,0.07,0.02,0.01,-0.05
1,-1.97,1.03,0.57,0.0,-0.01,-0.01,-0.13,-0.21,0.08,0.02,0.01,-0.05
1,-1.97,1.03,0.57,0.0,-0.01,-0.01,-0.1,-0.17,0.08,0.03,0.01,-0.05
1,-1.97,1.03,0.57,0.0,-0.01,-0.01,-0.08,-0.17,0.06,0.03,0.01,-0.05
1,-1.97,1.03,0.57,-0.0,-0.01,-0.01,-0.11,-0.2,0.03,0.03,0.0,-0.05
1,-1.97,1.03,0.57,0.0,-0.01,-0.01,-0.11,-0.21,0.01,0.03,0.0,-0.05
1,-1.97,1.03,0.57,0.0,-0.02,-0.01,-0.05,-0.24,0.02,0.04,-0.0,-0.05
1,-1.97,1.03,0.57,0.0,-0.02,-0.01,-0.02,-0.28,0.06,0.04,-0.0,-0.05
1,-1.97,1.03,0.57,0.0,-0.03,-0.01,-0.0,-0.29,0.05,0.04,-0.01,-0.05
1,-1.97,1.03,0.57,0.0,-0.03,-0.01,-0.01,-0.35,0.05,0.04,-0.01,-0.05
1,-1.97,1.03,0.57,0.0,-0.03,-0.01,0.03,-0.39,0.05,0.04,-0.01,-0.05
1,-1.97,1.03,0.57,0.0,-0.03,-0.01,0.03,-0.39,0.05,0.05,-0.01,-0.05
1,-1.97,1.03,0.57,0.01,-0.04,-0.01,0.05,-0.43,0.04,0.05,-0.01,-0.05
1,-1.97,1.03,0.57,0.01,-0.04,-0.01,0.15,-0.47,0.03,0.05,-0.02,-0.05
1,-1.97,1.03,0.57,0.01,-0.05,-0.01,0.14,-0.49,0.05,0.06,-0.02,-0.05
1,-1.97,1.03,0.57,0.01,-0.05,-0.01,0.13,-0.53,0.02,0.06,-0.02,-0.05
1,-1.97,1.03,0.57,0.01,-0.06,-0.01,0.14,-0.52,0.03,0.06,-0.03,-0.05
1,-1.97,1.03,0.57,0.01,-0.06,-0.01,0.21,-0.57,-0.0,0.07,-0.03,-0.05
1,-1.97,1.02,0.57,0.02,-0.07,-0.01,0.24,-0.56,0.01,0.07,-0.03,-0.05
1,-1.97,1.02,0.57,0.02,-0.08,-0.01,0.26,-0.6,0.05,0.07,-0.03,-0.04
1,-1.97,1.02,0.57,0.03,-0.09,-0.01,0.29,-0.58,0.11,0.07,-0.04,-0.04
1,-1.97,1.02,0.57,0.03,-0.09,-0.01,0.28,-0.58,0.11,0.07,-0.04,-0.04
1,-1.97,1.02,0.57,0.03,-0.1,-0.01,0.33,-0.65,0.11,0.07,-0.04,-0.04
1,-1.97,1.02,0.57,0.03,-0.1,-0.01,0.33,-0.68,0.09,0.08,-0.05,-0.04
1,-1.97,1.02,0.57,0.04,-0.11,-0.01,0.4,-0.67,0.07,0.08,-0.05,-0.04
1,-1.97,1.02,0.57,0.04,-0.12,-0.01,0.44,-0.73,0.07,0.08,-0.05,-0.04
1,-1.97,1.02,0.57,0.05,-0.12,-0.01,0.48,-0.78,0.06,0.08,-0.06,-0.04
1,-1.96,1.02,0.57,0.05,-0.13,-0.01,0.47,-0.77,0.04,0.09,-0.06,-0.04
1,-1.96,1.01,0.57,0.06,-0.14,-0.01,0.57,-0.74,0.03,0.09,-0.06,-0.04
1,-1.96,1.01,0.57,0.07,-0.15,-0.01,0.6,-0.74,0.02,0.09,-0.07,-0.04
1,-1.96,1.01,0.57,0.07,-0.16,-0.01,0.59,-0.73,0.03,0.09,-0.07,-0.04
1,-1.96,1.01,0.57,0.08,-0.17,-0.01,0.59,-0.72,0.03,0.09,-0.07,-0.04
1,-1.96,1.01,0.57,0.09,-0.17,-0.01,0.58,-0.73,0.07,0.09,-0.07,-0.04
1,-1.96,1.01,0.57,0.09,-0.18,-0.01,0.56,-0.78,0.07,0.1,-0.08,-0.04
1,-1.96,1.01,0.57,0.1,-0.19,-0.01,0.63,-0.8,0.02,0.1,-0.08,-0.04
1,-1.96,1.0,0.57,0.11,-0.2,-0.01,0.69,-0.84,-0.01,0.1,-0.09,-0.03
1,-1.96,1.0,0.57,0.12,-0.21,-0.01,0.7,-0.89,0.01,0.1,-0.09,-0.03
1,-1.95,1.0,0.57,0.13,-0.22,-0.01,0.72,-0.92,-0.01,0.1,-0.09,-0.03
1,-1.95,1.0,0.57,0.13,-0.23,-0.01,0.74,-0.92,-0.01,0.11,-0.1,-0.03
1,-1.95,1.0,0.57,0.14,-0.24,-0.01,0.8,-0.96,-0.01,0.11,-0.1,-0.03
1,-1.95,0.99,0.57,0.15,-0.25,-0.01,0.79,-0.95,0.0,0.11,-0.1,-0.03
1,-1.95,0.99,0.57,0.16,-0.26,-0.01,0.83,-0.94,0.03,0.11,-0.1,-0.03
1,-1.95,0.99,0.57,0.17,-0.27,-0.01,0.86,-0.93,0.04,0.11,-0.1,-0.03
1,-1.94,0.99,0.57,0.18,-0.28,-0.01,0.85,-0.93,0.02,0.11,-0.11,-0.03
1,-1.94,0.98,0.57,0.19,-0.3,-0.01,0.87,-0.96,0.02,0.12,-0.11,-0.03
1,-1.94,0.98,0.57,0.2,-0.31,-0.01,0.92,-0.96,0.01,0.12,-0.11,-0.03
1,-1.94,0.98,0.57,0.21,-0.32,-0.01,0.93,-1.0,0.01,0.12,-0.12,-0.02
1,-1.94,0.97,0.57,0.22,-0.33,-0.01,0.96,-0.99,-0.01,0.12,-0.12,-0.02
1,-1.93,0.97,0.57,0.23,-0.34,-0.01,0.98,-1.04,-0.02,0.12,-0.12,-0.02
1,-1.93,0.97,0.57,0.25,-0.35,-0.01,1.01,-1.05,-0.06,0.13,-0.13,-0.02
1,-1.93,0.96,0.57,0.26,-0.36,-0.01,0.98,-1.05,-0.04,0.13,-0.13,-0.02
1,-1.92,0.96,0.57,0.27,-0.37,-0.01,1.01,-1.08,-0.02,0.13,-0.13,-0.02
1,-1.92,0.96,0.57,0.28,-0.39,-0.02,1.06,-1.07,0.01,0.13,-0.13,-0.02
1,-1.92,0.95,0.57,0.29,-0.4,-0.02,1.06,-1.09,-0.02,0.13,-0.13,-0.02
1,-1.92,0.95,0.57,0.31,-0.41,-0.02,1.08,-1.12,-0.07,0.13,-0.14,-0.02
1,-1.91,0.94,0.57,0.32,-0.42,-0.02,1.11,-1.15,-0.04,0.13,-0.14,-0.01
1,-1.91,0.94,0.57,0.33,-0.44,-0.02,1.16,-1.13,-0.06,0.14,-0.14,-0.01
1,-1.91,0.94,0.57,0.35,-0.45,-0.02,1.21,-1.1,-0.1,0.14,-0.14,-0.01
1,-1.9,0.93,0.57,0.36,-0.46,-0.02,1.19,-1.15,-0.09,0.14,-0.15,-0.01
1,-1.9,0.93,0.57,0.37,-0.48,-0.02,1.23,-1.19,-0.05,0.14,-0.15,-0.01
1,-1.89,0.92,0.57,0.39,-0.49,-0.02,1.22,-1.16,-0.01,0.14,-0.15,-0.01
1,-1.89,0.92,0.57,0.4,-0.5,-0.02,1.24,-1.15,-0.01,0.14,-0.15,-0.01
1,-1.89,0.92,0.57,0.42,-0.51,-0.03,1.26,-1.09,-0.02,0.14,-0.15,-0.0
1,-1.88,0.91,0.57,0.43,-0.53,-0.03,1.27,-1.17,-0.04,0.14,-0.15,-0.0
1,-1.88,0.91,0.57,0.45,-0.54,-0.03,1.29,-1.13,-0.03,0.14,-0.16,-0.0
1,-1.87,0.9,0.56,0.46,-0.55,-0.03,1.28,-1.12,-0.02,0.14,-0.16,0.0
1,-1.87,0.89,0.56,0.47,-0.57,-0.03,1.28,-1.1,-0.02,0.15,-0.16,0.0
1,-1.86,0.89,0.56,0.49,-0.58,-0.03,1.33,-1.16,-0.02,0.15,-0.16,0.0
1,-1.86,0.89,0.56,0.51,-0.59,-0.03,1.32,-1.13,-0.04,0.15,-0.16,0.01
1,-1.85,0.88,0.56,0.52,-0.61,-0.03,1.31,-1.14,-0.07,0.15,-0.16,0.01
1,-1.85,0.87,0.56,0.54,-0.62,-0.03,1.31,-1.13,-0.04,0.14,-0.16,0.01
1,-1.84,0.87,0.56,0.55,-0.63,-0.03,1.32,-1.12,0.03,0.14,-0.16,0.01
1,-1.84,0.86,0.56,0.57,-0.64,-0.03,1.31,-1.11,0.09,0.14,-0.16,0.01
1,-1.83,0.86,0.56,0.58,-0.66,-0.03,1.26,-1.08,0.12,0.14,-0.16,0.01
1,-1.83,0.85,0.56,0.6,-0.67,-0.03,1.24,-1.07,0.13,0.14,-0.15,0.01
1,-1.82,0.84,0.56,0.61,-0.68,-0.03,1.22,-1.07,0.12,0.14,-0.15,0.01
1,-1.81,0.84,0.56,0.63,-0.69,-0.03,1.2,-1.03,0.09,0.14,-0.15,0.01
1,-1.81,0.83,0.56,0.64,-0.71,-0.03,1.23,-0.99,0.08,0.14,-0.15,0.02
1,-1.8,0.83,0.56,0.66,-0.72,-0.03,1.2,-0.99,0.08,0.14,-0.15,0.02
1,-1.8,0.82,0.56,0.67,-0.73,-0.03,1.19,-0.99,0.08,0.13,-0.15,0.02
1,-1.78,0.81,0.56,0.69,-0.74,-0.03,1.16,-0.97,0.14,0.13,-0.14,0.02
1,-1.78,0.8,0.56,0.7,-0.75,-0.03,1.12,-0.97,0.16,0.13,-0.14,0.02
1,-1.77,0.8,0.56,0.72,-0.76,-0.03,1.07,-0.91,0.17,0.13,-0.14,0.02
1,-1.77,0.79,0.56,0.73,-0.78,-0.03,1.08,-0.87,0.15,0.13,-0.14,0.02
1,-1.76,0.79,0.56,0.75,-0.79,-0.03,1.04,-0.83,0.15,0.12,-0.14,0.02
1,-1.75,0.77,0.56,0.76,-0.8,-0.02,0.98,-0.84,0.18,0.12,-0.13,0.02
1,-1.74,0.77,0.56,0.77,-0.81,-0.02,0.99,-0.81,0.19,0.12,-0.13,0.02
1,-1.74,0.76,0.56,0.78,-0.82,-0.02,0.97,-0.8,0.15,0.12,-0.13,0.03
1,-1.73,0.76,0.56,0.8,-0.83,-0.02,0.95,-0.82,0.15,0.12,-0.13,0.03
1,-1.72,0.75,0.56,0.81,-0.84,-0.02,0.91,-0.8,0.16,0.12,-0.12,0.03
1,-1.71,0.74,0.56,0.82,-0.85,-0.02,0.86,-0.77,0.17,0.11,-0.12,0.03
1,-1.7,0.73,0.56,0.83,-0.85,-0.02,0.82,-0.76,0.21,0.11,-0.12,0.03
1,-1.7,0.72,0.56,0.85,-0.86,-0.02,0.75,-0.72,0.23,0.11,-0.11,0.03
1,-1.69,0.72,0.56,0.86,-0.87,-0.02,0.75,-0.66,0.24,0.11,-0.11,0.03
1,-1.68,0.71,0.56,0.87,-0.88,-0.01,0.75,-0.62,0.26,0.11,-0.11,0.03
1,-1.67,0.7,0.56,0.88,-0.89,-0.01,0.67,-0.66,0.26,0.1,-0.1,0.03
1,-1.66,0.69,0.56,0.89,-0.9,-0.01,0.66,-0.6,0.27,0.1,-0.1,0.04
1,-1.66,0.68,0.56,0.9,-0.9,-0.01,0.57,-0.56,0.27,0.1,-0.1,0.04
1,-1.65,0.68,0.56,0.91,-0.91,-0.0,0.51,-0.57,0.25,0.1,-0.09,0.04
1,-1.64,0.67,0.56,0.92,-0.92,0.0,0.5,-0.54,0.28,0.09,-0.09,0.04
1,-1.63,0.66,0.56,0.93,-0.93,0.0,0.44,-0.51,0.26,0.09,-0.08,0.04
1,-1.62,0.65,0.56,0.93,-0.93,0.01,0.35,-0.47,0.21,0.09,-0.08,0.04
1,-1.61,0.64,0.56,0.94,-0.94,0.01,0.26,-0.46,0.24,0.08,-0.07,0.04
1,-1.61,0.64,0.57,0.95,-0.94,0.01,0.25,-0.41,0.22,0.08,-0.07,0.04
1,-1.6,0.63,0.57,0.96,-0.95,0.01,0.21,-0.37,0.2,0.08,-0.07,0.05
1,-1.58,0.62,0.57,0.96,-0.95,0.01,0.2,-0.32,0.19,0.07,-0.06,0.05
1,-1.58,0.61,0.57,0.97,-0.95,0.02,0.21,-0.31,0.22,0.07,-0.06,0.05
1,-1.57,0.6,0.57,0.97,-0.96,0.02,0.16,-0.22,0.21,0.07,-0.06,0.05
1,-1.56,0.6,0.57,0.98,-0.96,0.02,0.15,-0.19,0.19,0.07,-0.05,0.05
1,-1.55,0.59,0.57,0.98,-0.97,0.02,0.07,-0.17,0.16,0.06,-0.05,0.05
1,-1.54,0.57,0.57,0.99,-0.97,0.02,-0.02,-0.15,0.16,0.06,-0.05,0.06
1,-1.53,0.57,0.57,0.99,-0.97,0.03,-0.04,-0.17,0.19,0.06,-0.04,0.06
1,-1.52,0.56,0.57,0.99,-0.97,0.03,-0.11,-0.15,0.14,0.06,-0.04,0.06
1,-1.52,0.55,0.57,0.99,-0.98,0.03,-0.11,-0.1,0.13,0.06,-0.03,0.06
1,-1.51,0.55,0.57,1.0,-0.98,0.03,-0.18,-0.05,0.09,0.05,-0.03,0.06
1,-1.49,0.53,0.57,1.0,-0.98,0.04,-0.19,-0.07,0.07,0.05,-0.03,0.07
1,-1.49,0.53,0.57,1.0,-0.98,0.04,-0.21,-0.02,0.07,0.05,-0.02,0.07
1,-1.48,0.52,0.57,1.0,-0.98,0.04,-0.2,-0.04,0.05,0.05,-0.02,0.07
1,-1.47,0.51,0.57,1.0,-0.98,0.04,-0.24,0.03,0.02,0.04,-0.02,0.07
1,-1.46,0.5,0.57,1.0,-0.98,0.04,-0.24,0.03,-0.07,0.04,-0.02,0.07
1,-1.45,0.49,0.57,1.0,-0.98,0.04,-0.31,0.08,-0.1,0.04,-0.02,0.08
1,-1.44,0.48,0.57,1.0,-0.98,0.04,-0.32,0.1,-0.08,0.04,-0.02,0.08
1,-1.43,0.48,0.57,1.0,-0.98,0.04,-0.34,0.13,-0.13,0.03,-0.01,0.08
1,-1.43,0.47,0.57,1.0,-0.98,0.04,-0.35,0.13,-0.16,0.03,-0.01,0.08
1,-1.42,0.46,0.58,1.0,-0.98,0.04,-0.35,0.18,-0.15,0.03,-0.01,0.08
1,-1.4,0.45,0.58,1.0,-0.98,0.04,-0.31,0.17,-0.13,0.03,-0.01,0.09
1,-1.4,0.44,0.58,1.0,-0.98,0.04,-0.3,0.21,-0.09,0.03,-0.01,0.09
1,-1.39,0.44,0.58,1.0,-0.97,0.04,-0.33,0.2,-0.11,0.03,-0.01,0.09
1,-1.38,0.43,0.58,1.0,-0.97,0.04,-0.34,0.2,-0.08,0.02,-0.01,0.09
1,-1.37,0.42,0.58,0.99,-0.97,0.04,-0.36,0.2,-0.08,0.02,-0.01,0.09
1,-1.36,0.41,0.58,0.99,-0.97,0.03,-0.38,0.22,-0.08,0.02,-0.01,0.09
1,-1.35,0.4,0.58,0.99,-0.97,0.03,-0.36,0.17,-0.1,0.02,-0.01,0.1
1,-1.34,0.39,0.58,0.99,-0.96,0.03,-0.37,0.21,-0.11,0.02,-0.01,0.1
1,-1.34,0.39,0.58,0.99,-0.96,0.03,-0.41,0.23,-0.14,0.02,-0.01,0.1
1,-1.33,0.38,0.58,0.99,-0.96,0.03,-0.44,0.25,-0.17,0.02,-0.01,0.1
1,-1.31,0.37,0.58,0.98,-0.96,0.03,-0.41,0.24,-0.22,0.02,-0.01,0.1
1,-1.31,0.36,0.58,0.98,-0.95,0.03,-0.4,0.26,-0.18,0.02,-0.01,0.1
1,-1.3,0.35,0.58,0.98,-0.95,0.03,-0.36,0.19,-0.1,0.02,-0.01,0.1
1,-1.29,0.35,0.58,0.98,-0.95,0.02,-0.35,0.21,-0.09,0.02,-0.01,0.11
1,-1.29,0.34,0.58,0.98,-0.95,0.02,-0.33,0.17,-0.13,0.02,-0.01,0.11
1,-1.27,0.33,0.58,0.97,-0.95,0.02,-0.36,0.22,-0.19,0.02,-0.01,0.11
1,-1.26,0.32,0.58,0.97,-0.94,0.02,-0.35,0.19,-0.24,0.02,-0.01,0.11
1,-1.26,0.31,0.58,0.97,-0.94,0.02,-0.34,0.25,-0.26,0.02,-0.02,0.11
1,-1.25,0.31,0.58,0.97,-0.94,0.02,-0.33,0.25,-0.17,0.02,-0.02,0.11
1,-1.24,0.3,0.58,0.97,-0.93,0.01,-0.28,0.25,-0.14,0.02,-0.02,0.11
1,-1.23,0.29,0.58,0.97,-0.93,0.01,-0.28,0.28,-0.13,0.02,-0.02,0.11
1,-1.22,0.28,0.58,0.96,-0.93,0.01,-0.31,0.32,-0.2,0.02,-0.02,0.11
1,-1.21,0.28,0.58,0.96,-0.92,0.01,-0.27,0.3,-0.25,0.02,-0.02,0.11
1,-1.21,0.27,0.58,0.96,-0.92,0.01,-0.24,0.28,-0.26,0.02,-0.03,0.12
1,-1.2,0.26,0.58,0.96,-0.92,0.01,-0.22,0.3,-0.2,0.02,-0.03,0.12
1,-1.19,0.25,0.58,0.96,-0.91,0.0,-0.19,0.34,-0.15,0.02,-0.03,0.12
1,-1.18,0.24,0.58,0.96,-0.91,0.0,-0.24,0.35,-0.14,0.02,-0.03,0.12
1,-1.17,0.24,0.58,0.96,-0.91,0.0,-0.2,0.33,-0.12,0.02,-0.03,0.12
1,-1.16,0.23,0.58,0.96,-0.9,-0.0,-0.2,0.26,-0.06,0.02,-0.03,0.12
1,-1.16,0.23,0.58,0.96,-0.9,-0.0,-0.22,0.28,-0.13,0.02,-0.03,0.12
1,-1.14,0.21,0.58,0.96,-0.9,-0.0,-0.24,0.27,-0.2,0.03,-0.03,0.12
1,-1.14,0.21,0.58,0.96,-0.89,-0.01,-0.21,0.23,-0.23,0.03,-0.03,0.12
1,-1.13,0.2,0.58,0.96,-0.89,-0.01,-0.21,0.21,-0.22,0.03,-0.03,0.13
1,-1.12,0.2,0.58,0.96,-0.89,-0.01,-0.19,0.19,-0.17,0.03,-0.03,0.13
1,-1.11,0.19,0.58,0.96,-0.89,-0.01,-0.18,0.18,-0.16,0.03,-0.03,0.13
1,-1.1,0.18,0.58,0.96,-0.89,-0.01,-0.17,0.19,-0.25,0.03,-0.03,0.13
1,-1.09,0.17,0.58,0.96,-0.88,-0.02,-0.21,0.16,-0.36,0.03,-0.03,0.13
1,-1.09,0.17,0.58,0.96,-0.88,-0.02,-0.15,0.12,-0.24,0.04,-0.03,0.13
1,-1.08,0.16,0.58,0.96,-0.88,-0.02,-0.09,0.07,-0.15,0.04,-0.03,0.13
1,-1.07,0.15,0.58,0.96,-0.88,-0.03,-0.11,0.06,-0.19,0.04,-0.03,0.13
1,-1.06,0.14,0.58,0.96,-0.88,-0.03,-0.11,0.09,-0.24,0.04,-0.04,0.13
1,-1.05,0.14,0.58,0.96,-0.87,-0.03,-0.13,0.14,-0.29,0.04,-0.04,0.13
1,-1.04,0.13,0.58,0.96,-0.87,-0.03,-0.1,0.12,-0.25,0.04,-0.04,0.14
1,-1.04,0.12,0.58,0.96,-0.87,-0.04,-0.03,0.06,-0.1,0.04,-0.04,0.14
1,-1.03,0.12,0.58,0.97,-0.87,-0.04,-0.03,0.0,-0.13,0.04,-0.04,0.14
1,-1.02,0.11,0.58,0.97,-0.87,-0.04,-0.1,0.03,-0.2,0.05,-0.04,0.14
1,-1.01,0.1,0.58,0.97,-0.87,-0.04,-0.07,0.05,-0.16,0.05,-0.04,0.14
1,-1.0,0.09,0.58,0.97,-0.87,-0.05,-0.1,0.08,-0.12,0.04,-0.04,0.14
1,-0.99,0.09,0.58,0.97,-0.87,-0.05,-0.06,0.08,-0.01,0.04,-0.04,0.14
1,-0.99,0.08,0.58,0.97,-0.87,-0.05,-0.07,0.03,-0.04,0.04,-0.04,0.14
1,-0.97,0.07,0.58,0.97,-0.87,-0.05,-0.06,-0.0,-0.06,0.04,-0.04,0.14
1,-0.97,0.06,0.58,0.97,-0.87,-0.05,-0.06,0.06,-0.16,0.04,-0.04,0.14
1,-0.96,0.06,0.58,0.97,-0.87,-0.05,-0.03,0.05,-0.14,0.04,-0.04,0.14
1,-0.95,0.05,0.58,0.98,-0.87,-0.05,-0.01,0.04,-0.07,0.04,-0.04,0.14
1,-0.94,0.05,0.58,0.98,-0.86,-0.06,-0.01,0.04,-0.01,0.05,-0.04,0.14
1,-0.93,0.04,0.57,0.98,-0.86,-0.06,-0.02,0.01,0.08,0.05,-0.04,0.14
1,-0.92,0.03,0.57,0.98,-0.86,-0.06,-0.02,0.0,0.04,0.05,-0.04,0.14
1,-0.91,0.02,0.57,0.98,-0.86,-0.06,-0.06,0.06,-0.05,0.05,-0.04,0.15
1,-0.91,0.02,0.57,0.98,-0.86,-0.06,-0.07,0.07,-0.06,0.05,-0.04,0.15
1,-0.9,0.01,0.57,0.98,-0.86,-0.06,-0.04,0.04,-0.03,0.05,-0.04,0.15
1,-0.89,0.0,0.57,0.99,-0.86,-0.06,-0.01,0.0,0.05,0.05,-0.04,0.15
1,-0.88,-0.0,0.57,0.98,-0.86,-0.06,-0.04,0.02,0.04,0.05,-0.04,0.15
1,-0.87,-0.01,0.57,0.99,-0.86,-0.06,-0.06,0.04,0.0,0.05,-0.04,0.15
1,-0.86,-0.02,0.57,0.99,-0.86,-0.06,-0.04,0.09,-0.04,0.05,-0.04,0.15
1,-0.86,-0.02,0.57,0.99,-0.86,-0.06,-0.01,0.07,-0.04,0.05,-0.04,0.15
1,-0.84,-0.03,0.57,0.99,-0.86,-0.06,0.02,0.02,0.01,0.05,-0.05,0.15
1,-0.83,-0.04,0.57,0.99,-0.85,-0.06,0.05,-0.02,0.12,0.05,-0.05,0.15
1,-0.83,-0.05,0.57,1.0,-0.85,-0.06,0.03,-0.07,0.18,0.05,-0.05,0.15
1,-0.82,-0.05,0.57,1.0,-0.85,-0.06,-0.02,-0.03,0.1,0.05,-0.05,0.15
1,-0.81,-0.06,0.57,1.0,-0.85,-0.06,-0.03,-0.01,-0.01,0.05,-0.05,0.15
1,-0.8,-0.07,0.57,1.0,-0.85,-0.06,-0.02,0.03,-0.02,0.05,-0.05,0.15
1,-0.79,-0.07,0.57,1.0,-0.85,-0.06,-0.03,0.01,0.05,0.05,-0.05,0.15
1,-0.78,-0.08,0.57,1.0,-0.85,-0.06,-0.01,-0.0,0.13,0.05,-0.05,0.15
1,-0.78,-0.08,0.57,1.01,-0.85,-0.06,0.02,-0.03,0.14,0.05,-0.05,0.15
1,-0.77,-0.09,0.57,1.01,-0.85,-0.06,0.06,-0.05,0.09,0.05,-0.05,0.15
1,-0.75,-0.1,0.56,1.01,-0.85,-0.06,0.02,-0.04,0.04,0.06,-0.05,0.15
1,-0.75,-0.11,0.56,1.01,-0.85,-0.06,-0.02,-0.06,0.04,0.06,-0.05,0.15
1,-0.74,-0.11,0.56,1.01,-0.85,-0.06,0.03,-0.03,0.07,0.06,-0.05,0.15
1,-0.73,-0.12,0.56,1.02,-0.85,-0.06,0.06,-0.08,0.15,0.06,-0.05,0.15
1,-0.72,-0.12,0.56,1.02,-0.85,-0.05,0.03,-0.13,0.15,0.06,-0.05,0.15
1,-0.71,-0.14,0.56,1.02,-0.85,-0.05,-0.0,-0.13,0.09,0.06,-0.05,0.15
1,-0.7,-0.14,0.56,1.02,-0.85,-0.05,0.02,-0.09,0.05,0.06,-0.05,0.15
1,-0.69,-0.15,0.56,1.02,-0.85,-0.05,0.03,-0.05,0.02,0.06,-0.05,0.15
1,-0.69,-0.15,0.56,1.03,-0.85,-0.05,0.06,-0.09,0.03,0.06,-0.05,0.15
1,-0.68,-0.16,0.56,1.03,-0.85,-0.05,0.09,-0.12,0.1,0.06,-0.05,0.15
1,-0.66,-0.17,0.56,1.03,-0.85,-0.05,0.11,-0.18,0.16,0.06,-0.05,0.15
1,-0.66,-0.18,0.56,1.03,-0.85,-0.05,0.05,-0.16,0.12,0.06,-0.05,0.15
1,-0.65,-0.18,0.56,1.03,-0.85,-0.05,0.03,-0.16,0.09,0.06,-0.05,0.15
1,-0.64,-0.19,0.56,1.04,-0.85,-0.05,0.03,-0.14,0.09,0.06,-0.05,0.15
1,-0.63,-0.19,0.56,1.04,-0.85,-0.05,0.04,-0.13,0.12,0.06,-0.05,0.15
1,-0.62,-0.2,0.56,1.04,-0.85,-0.05,0.06,-0.14,0.18,0.06,-0.05,0.15
1,-0.61,-0.21,0.56,1.04,-0.85,-0.05,0.07,-0.11,0.22,0.06,-0.05,0.15
1,-0.6,-0.22,0.56,1.04,-0.85,-0.04,0.1,-0.11,0.23,0.06,-0.05,0.15
1,-0.6,-0.22,0.56,1.04,-0.85,-0.04,0.1,-0.11,0.15,0.06,-0.05,0.15
1,-0.59,-0.23,0.56,1.05,-0.85,-0.04,0.08,-0.11,0.12,0.06,-0.05,0.15
1,-0.57,-0.24,0.56,1.05,-0.85,-0.04,0.07,-0.13,0.12,0.06,-0.05,0.15
1,-0.56,-0.24,0.56,1.05,-0.85,-0.04,0.09,-0.07,0.14,0.06,-0.05,0.15
1,-0.56,-0.25,0.56,1.05,-0.85,-0.04,0.1,-0.12,0.17,0.06,-0.05,0.15
1,-0.55,-0.26,0.56,1.05,-0.85,-0.04,0.08,-0.16,0.19,0.06,-0.05,0.14
1,-0.54,-0.26,0.56,1.06,-0.85,-0.03,0.09,-0.18,0.13,0.06,-0.05,0.14
1,-0.53,-0.27,0.56,1.06,-0.85,-0.03,0.07,-0.16,0.15,0.06,-0.05,0.14
1,-0.52,-0.28,0.56,1.06,-0.85,-0.03,0.03,-0.15,0.14,0.06,-0.05,0.14
1,-0.51,-0.28,0.56,1.06,-0.85,-0.03,0.04,-0.12,0.07,0.06,-0.05,0.14
1,-0.5,-0.29,0.56,1.06,-0.85,-0.03,0.05,-0.14,0.09,0.07,-0.05,0.14
1,-0.49,-0.3,0.56,1.07,-0.85,-0.03,0.11,-0.22,0.15,0.07,-0.05,0.14
1,-0.48,-0.31,0.56,1.07,-0.85,-0.03,0.09,-0.27,0.22,0.07,-0.05,0.14
1,-0.47,-0.31,0.56,1.07,-0.85,-0.02,0.05,-0.24,0.16,0.07,-0.05,0.14
1,-0.46,-0.32,0.56,1.07,-0.85,-0.02,0.08,-0.21,0.12,0.07,-0.05,0.14
1,-0.45,-0.32,0.56,1.07,-0.85,-0.02,0.08,-0.21,0.12,0.07,-0.05,0.14
1,-0.45,-0.33,0.56,1.07,-0.85,-0.02,0.02,-0.18,0.06,0.07,-0.05,0.14
1,-0.43,-0.34,0.56,1.08,-0.85,-0.02,-0.0,-0.2,0.16,0.06,-0.04,0.13
1,-0.42,-0.35,0.56,1.07,-0.85,-0.02,0.01,-0.18,0.2,0.06,-0.04,0.13
1,-0.42,-0.35,0.56,1.08,-0.85,-0.02,-0.01,-0.22,0.16,0.06,-0.04,0.13
1,-0.41,-0.36,0.56,1.08,-0.85,-0.02,-0.01,-0.22,0.16,0.06,-0.04,0.13
1,-0.4,-0.37,0.56,1.08,-0.85,-0.02,0.01,-0.2,0.13,0.06,-0.04,0.13
1,-0.38,-0.38,0.56,1.08,-0.86,-0.01,-0.06,-0.17,0.07,0.06,-0.04,0.13
1,-0.38,-0.38,0.56,1.08,-0.85,-0.01,-0.06,-0.18,0.09,0.06,-0.04,0.13
1,-0.37,-0.39,0.56,1.08,-0.86,-0.01,-0.05,-0.22,0.15,0.06,-0.04,0.13
1,-0.36,-0.39,0.56,1.08,-0.86,-0.01,-0.04,-0.26,0.19,0.06,-0.04,0.13
1,-0.35,-0.4,0.56,1.08,-0.86,-0.01,-0.04,-0.26,0.19,0.06,-0.04,0.12
1,-0.34,-0.41,0.56,1.08,-0.86,-0.01,-0.04,-0.26,0.19,0.06,-0.04,0.12
1,-0.33,-0.42,0.56,1.09,-0.86,-0.01,-0.09,-0.19,0.02,0.07,-0.04,0.12
1,-0.32,-0.42,0.56,1.08,-0.86,-0.0,-0.09,-0.17,0.04,0.06,-0.04,0.12
1,-0.31,-0.43,0.56,1.09,-0.86,-0.0,-0.08,-0.2,0.07,0.06,-0.04,0.12
1,-0.3,-0.44,0.56,1.09,-0.87,-0.0,-0.04,-0.21,0.14,0.06,-0.04,0.12
1,-0.29,-0.45,0.56,1.09,-0.87,-0.0,-0.04,-0.2,0.15,0.06,-0.04,0.12
1,-0.28,-0.45,0.56,1.09,-0.87,-0.0,-0.06,-0.24,0.1,0.06,-0.04,0.12
1,-0.27,-0.46,0.56,1.09,-0.87,-0.0,-0.08,-0.17,0.02,0.06,-0.04,0.12
1,-0.26,-0.47,0.56,1.1,-0.87,-0.0,-0.09,-0.18,-0.04,0.06,-0.04,0.12
1,-0.26,-0.47,0.56,1.1,-0.87,-0.0,-0.1,-0.18,-0.02,0.06,-0.04,0.11
1,-0.24,-0.48,0.56,1.1,-0.88,-0.0,-0.02,-0.2,0.0,0.06,-0.04,0.11
1,-0.23,-0.49,0.56,1.1,-0.88,-0.0,-0.01,-0.21,0.03,0.06,-0.04,0.11
1,-0.22,-0.5,0.56,1.1,-0.88,-0.0,-0.0,-0.24,0.07,0.06,-0.04,0.11
1,-0.22,-0.5,0.56,1.1,-0.88,-0.0,-0.03,-0.23,0.03,0.07,-0.04,0.11
1,-0.21,-0.51,0.56,1.1,-0.88,-0.0,-0.08,-0.19,-0.06,0.07,-0.04,0.11
1,-0.19,-0.52,0.56,1.1,-0.88,-0.0,-0.11,-0.15,-0.06,0.07,-0.04,0.11
1,-0.18,-0.53,0.56,1.1,-0.88,-0.0,-0.12,-0.15,-0.06,0.07,-0.04,0.11
1,-0.18,-0.53,0.56,1.1,-0.88,-0.0,-0.1,-0.18,-0.03,0.07,-0.04,0.11
1,-0.17,-0.54,0.56,1.1,-0.89,-0.0,-0.08,-0.21,0.02,0.07,-0.04,0.11
1,-0.16,-0.54,0.56,1.1,-0.89,-0.0,-0.12,-0.22,-0.02,0.07,-0.04,0.11
1,-0.14,-0.56,0.56,1.11,-0.89,-0.0,-0.14,-0.17,-0.09,0.07,-0.04,0.11
1,-0.14,-0.56,0.56,1.1,-0.89,-0.0,-0.12,-0.12,-0.08,0.06,-0.04,0.11
1,-0.13,-0.57,0.56,1.1,-0.89,-0.0,-0.08,-0.15,-0.02,0.06,-0.04,0.11
1,-0.12,-0.57,0.56,1.1,-0.89,-0.0,-0.04,-0.18,0.03,0.06,-0.04,0.1
1,-0.11,-0.58,0.56,1.11,-0.89,-0.0,-0.04,-0.15,0.04,0.06,-0.04,0.1
1,-0.1,-0.59,0.56,1.11,-0.89,-0.0,-0.07,-0.12,-0.05,0.06,-0.04,0.1
1,-0.09,-0.6,0.56,1.1,-0.89,-0.01,-0.1,-0.1,-0.1,0.06,-0.04,0.1
1,-0.08,-0.6,0.56,1.1,-0.89,-0.01,-0.1,-0.09,-0.13,0.06,-0.04,0.1
1,-0.07,-0.61,0.56,1.11,-0.89,-0.01,-0.07,-0.11,-0.09,0.06,-0.04,0.1
1,-0.06,-0.62,0.56,1.11,-0.9,-0.01,-0.05,-0.15,-0.05,0.06,-0.04,0.1
1,-0.05,-0.63,0.56,1.11,-0.9,-0.01,-0.06,-0.17,-0.04,0.06,-0.04,0.1
1,-0.04,-0.64,0.56,1.1,-0.89,-0.01,-0.11,-0.15,-0.11,0.06,-0.04,0.1
1,-0.03,-0.64,0.56,1.1,-0.9,-0.01,-0.1,-0.13,-0.19,0.06,-0.04,0.1
1,-0.02,-0.65,0.56,1.11,-0.9,-0.01,-0.05,-0.09,-0.17,0.06,-0.04,0.1
1,-0.02,-0.65,0.56,1.11,-0.9,-0.02,-0.06,-0.14,-0.08,0.06,-0.04,0.1
1,-0.0,-0.67,0.56,1.11,-0.9,-0.02,-0.08,-0.15,-0.07,0.06,-0.04,0.1
1,0.01,-0.67,0.56,1.1,-0.9,-0.02,-0.08,-0.14,-0.04,0.06,-0.04,0.1
1,0.02,-0.68,0.56,1.11,-0.9,-0.02,-0.08,-0.11,-0.08,0.06,-0.04,0.1
1,0.02,-0.68,0.56,1.11,-0.9,-0.02,-0.06,-0.09,-0.17,0.06,-0.04,0.1
1,0.03,-0.69,0.56,1.11,-0.9,-0.02,-0.08,-0.1,-0.16,0.06,-0.04,0.1
1,0.05,-0.7,0.56,1.11,-0.9,-0.02,-0.02,-0.11,-0.12,0.06,-0.04,0.1
1,0.06,-0.71,0.56,1.11,-0.9,-0.02,-0.05,-0.09,-0.12,0.06,-0.04,0.1
1,0.06,-0.72,0.56,1.11,-0.9,-0.03,-0.05,-0.17,-0.12,0.06,-0.04,0.1
1,0.07,-0.72,0.56,1.11,-0.9,-0.03,-0.06,-0.16,-0.19,0.06,-0.04,0.09
1,0.08,-0.73,0.56,1.11,-0.9,-0.03,-0.08,-0.12,-0.18,0.06,-0.04,0.09
1,0.1,-0.74,0.56,1.11,-0.9,-0.03,-0.08,-0.1,-0.16,0.06,-0.04,0.09
1,0.1,-0.75,0.56,1.11,-0.9,-0.03,-0.06,-0.14,-0.11,0.06,-0.04,0.09
1,0.11,-0.75,0.56,1.11,-0.9,-0.03,-0.07,-0.11,-0.07,0.06,-0.04,0.09
1,0.12,-0.76,0.56,1.11,-0.9,-0.03,-0.07,-0.16,-0.02,0.06,-0.04,0.09
1,0.13,-0.76,0.56,1.11,-0.91,-0.03,-0.09,-0.2,-0.02,0.06,-0.04,0.09
1,0.14,-0.78,0.56,1.11,-0.91,-0.04,-0.11,-0.17,-0.08,0.06,-0.04,0.09
1,0.15,-0.78,0.56,1.11,-0.9,-0.04,-0.14,-0.12,-0.12,0.06,-0.04,0.09
1,0.16,-0.79,0.56,1.11,-0.91,-0.04,-0.14,-0.1,-0.13,0.06,-0.04,0.09
1,0.17,-0.8,0.56,1.11,-0.91,-0.04,-0.09,-0.11,-0.07,0.06,-0.04,0.09
1,0.18,-0.8,0.56,1.11,-0.91,-0.04,-0.09,-0.15,-0.04,0.06,-0.04,0.09
1,0.19,-0.81,0.56,1.11,-0.91,-0.04,-0.09,-0.18,-0.0,0.06,-0.04,0.09
1,0.2,-0.82,0.55,1.11,-0.91,-0.04,-0.1,-0.15,-0.0,0.06,-0.04,0.09
1,0.21,-0.83,0.55,1.11,-0.91,-0.04,-0.09,-0.1,-0.06,0.05,-0.04,0.08
1,0.22,-0.83,0.55,1.11,-0.91,-0.04,-0.12,-0.08,-0.12,0.05,-0.04,0.08
1,0.23,-0.84,0.55,1.11,-0.91,-0.04,-0.13,-0.06,-0.1,0.05,-0.04,0.08
1,0.24,-0.85,0.55,1.11,-0.91,-0.04,-0.1,-0.1,-0.06,0.05,-0.04,0.08
1,0.25,-0.86,0.55,1.11,-0.91,-0.05,-0.07,-0.16,-0.01,0.06,-0.04,0.08
1,0.26,-0.86,0.55,1.11,-0.91,-0.05,-0.04,-0.18,0.01,0.06,-0.04,0.08
1,0.27,-0.87,0.55,1.11,-0.91,-0.05,-0.06,-0.21,-0.01,0.06,-0.04,0.08
1,0.27,-0.88,0.55,1.11,-0.91,-0.05,-0.12,-0.25,-0.05,0.06,-0.04,0.09
1,0.29,-0.89,0.55,1.11,-0.91,-0.05,-0.14,-0.22,-0.11,0.06,-0.03,0.09
1,0.3,-0.9,0.55,1.11,-0.91,-0.05,-0.17,-0.19,-0.15,0.06,-0.03,0.09
1,0.31,-0.9,0.55,1.11,-0.91,-0.05,-0.16,-0.2,-0.06,0.06,-0.03,0.09
1,0.31,-0.91,0.55,1.11,-0.91,-0.05,-0.13,-0.25,-0.01,0.06,-0.03,0.09
1,0.32,-0.91,0.55,1.11,-0.92,-0.05,-0.16,-0.24,-0.02,0.06,-0.03,0.09
1,0.34,-0.93,0.55,1.11,-0.92,-0.05,-0.15,-0.2,-0.1,0.06,-0.03,0.09
1,0.35,-0.93,0.55,1.11,-0.91,-0.05,-0.17,-0.19,-0.08,0.06,-0.03,0.09
1,0.35,-0.94,0.55,1.11,-0.92,-0.05,-0.11,-0.18,0.06,0.06,-0.03,0.09
1,0.36,-0.95,0.55,1.11,-0.92,-0.05,-0.09,-0.17,0.12,0.06,-0.03,0.09
1,0.37,-0.95,0.55,1.11,-0.92,-0.05,-0.09,-0.16,0.07,0.06,-0.04,0.09
1,0.39,-0.97,0.55,1.11,-0.92,-0.05,-0.12,-0.11,0.03,0.05,-0.04,0.09
1,0.39,-0.97,0.55,1.11,-0.92,-0.05,-0.12,-0.05,0.04,0.05,-0.04,0.09
1,0.4,-0.98,0.55,1.11,-0.92,-0.05,-0.12,-0.03,0.07,0.05,-0.04,0.09
1,0.41,-0.98,0.55,1.11,-0.92,-0.05,-0.05,-0.03,0.13,0.05,-0.04,0.1
1,0.42,-0.99,0.55,1.11,-0.92,-0.05,0.02,-0.03,0.22,0.05,-0.04,0.1
1,0.44,-1.0,0.55,1.11,-0.92,-0.05,0.0,-0.02,0.19,0.05,-0.04,0.1
1,0.44,-1.01,0.55,1.11,-0.92,-0.05,-0.02,-0.02,0.09,0.05,-0.05,0.1
1,0.45,-1.02,0.55,1.11,-0.92,-0.04,0.02,-0.01,0.07,0.04,-0.05,0.1
1,0.46,-1.02,0.55,1.11,-0.92,-0.05,0.0,0.0,0.03,0.04,-0.05,0.1
1,0.47,-1.03,0.55,1.11,-0.92,-0.05,-0.0,0.07,0.06,0.04,-0.05,0.1
1,0.48,-1.04,0.54,1.12,-0.92,-0.05,-0.0,0.07,0.13,0.04,-0.05,0.1
1,0.49,-1.05,0.54,1.11,-0.91,-0.04,0.0,0.02,0.1,0.04,-0.05,0.1
1,0.5,-1.05,0.54,1.12,-0.91,-0.04,0.02,0.06,0.05,0.04,-0.05,0.1
1,0.51,-1.06,0.54,1.12,-0.91,-0.04,-0.03,0.14,-0.04,0.04,-0.05,0.1
1,0.52,-1.07,0.54,1.12,-0.91,-0.04,-0.04,0.16,-0.03,0.03,-0.05,0.1
1,0.53,-1.08,0.54,1.12,-0.91,-0.04,-0.0,0.14,0.06,0.03,-0.05,0.1
1,0.54,-1.09,0.54,1.12,-0.91,-0.04,0.01,0.16,0.03,0.02,-0.05,0.1
1,0.55,-1.09,0.54,1.12,-0.91,-0.04,-0.05,0.25,0.01,0.02,-0.05,0.1
1,0.56,-1.1,0.54,1.12,-0.9,-0.04,-0.04,0.35,0.01,0.02,-0.05,0.1
1,0.57,-1.1,0.54,1.12,-0.9,-0.04,-0.07,0.43,0.01,0.01,-0.05,0.1
1,0.58,-1.12,0.54,1.12,-0.9,-0.04,-0.06,0.45,0.09,0.0,-0.05,0.1
1,0.59,-1.12,0.54,1.12,-0.89,-0.04,-0.08,0.47,0.11,-0.0,-0.05,0.1
1,0.6,-1.13,0.54,1.12,-0.88,-0.04,-0.09,0.51,0.09,-0.01,-0.05,0.1
1,0.61,-1.13,0.54,1.12,-0.88,-0.04,-0.1,0.61,0.01,-0.01,-0.05,0.1
1,0.62,-1.14,0.54,1.13,-0.87,-0.04,-0.08,0.67,0.04,-0.02,-0.05,0.1
1,0.63,-1.15,0.54,1.13,-0.87,-0.04,-0.05,0.68,0.07,-0.02,-0.05,0.1
1,0.64,-1.16,0.54,1.13,-0.87,-0.04,-0.05,0.68,0.07,-0.02,-0.05,0.1
1,0.65,-1.16,0.54,1.13,-0.87,-0.04,-0.05,0.68,0.07,-0.02,-0.05,0.1
1,0.66,-1.17,0.54,1.13,-0.85,-0.04,-0.09,0.72,0.15,-0.03,-0.04,0.1
1,0.66,-1.17,0.54,1.12,-0.83,-0.03,-0.18,0.82,0.01,-0.04,-0.04,0.1
1,0.68,-1.19,0.54,1.12,-0.82,-0.03,-0.22,0.88,-0.02,-0.05,-0.04,0.1
1,0.69,-1.19,0.54,1.12,-0.81,-0.03,-0.2,0.91,0.05,-0.05,-0.04,0.1
1,0.7,-1.2,0.54,1.12,-0.8,-0.03,-0.17,0.89,0.13,-0.05,-0.04,0.1
1,0.71,-1.2,0.54,1.12,-0.79,-0.03,-0.15,0.92,0.08,-0.06,-0.04,0.1
1,0.71,-1.21,0.54,1.12,-0.78,-0.03,-0.21,0.96,-0.05,-0.06,-0.04,0.1
1,0.73,-1.22,0.54,1.11,-0.77,-0.03,-0.24,1.02,-0.05,-0.06,-0.03,0.1
1,0.74,-1.22,0.54,1.11,-0.75,-0.03,-0.19,0.95,-0.01,-0.06,-0.03,0.1
1,0.75,-1.23,0.54,1.11,-0.74,-0.03,-0.14,0.93,0.05,-0.07,-0.03,0.1
1,0.75,-1.23,0.54,1.11,-0.73,-0.03,-0.23,0.94,-0.03,-0.07,-0.03,0.1
1,0.76,-1.24,0.54,1.11,-0.72,-0.03,-0.31,0.98,-0.18,-0.07,-0.03,0.1
1,0.78,-1.25,0.54,1.11,-0.71,-0.03,-0.27,1.07,-0.11,-0.07,-0.03,0.1
1,0.79,-1.25,0.54,1.1,-0.7,-0.03,-0.22,1.02,0.0,-0.08,-0.03,0.1
1,0.79,-1.25,0.54,1.1,-0.68,-0.03,-0.28,1.02,-0.04,-0.08,-0.03,0.1
1,0.8,-1.26,0.54,1.1,-0.67,-0.03,-0.33,1.12,-0.11,-0.08,-0.03,0.1
1,0.81,-1.26,0.54,1.1,-0.66,-0.03,-0.31,1.18,-0.13,-0.08,-0.03,0.1
1,0.83,-1.27,0.54,1.1,-0.65,-0.03,-0.25,1.18,0.01,-0.08,-0.03,0.1
1,0.83,-1.28,0.54,1.09,-0.63,-0.03,-0.23,1.14,0.0,-0.09,-0.03,0.11
1,0.84,-1.28,0.54,1.09,-0.62,-0.03,-0.28,1.2,-0.13,-0.09,-0.03,0.11
1,0.85,-1.28,0.54,1.09,-0.6,-0.03,-0.23,1.24,-0.03,-0.09,-0.04,0.11
1,0.86,-1.29,0.53,1.09,-0.59,-0.03,-0.22,1.21,0.01,-0.09,-0.04,0.11
1,0.88,-1.29,0.53,1.09,-0.58,-0.03,-0.2,1.22,0.01,-0.09,-0.04,0.11
1,0.88,-1.3,0.53,1.08,-0.56,-0.03,-0.23,1.25,-0.05,-0.09,-0.04,0.11
1,0.89,-1.3,0.53,1.08,-0.54,-0.03,-0.24,1.31,-0.05,-0.09,-0.04,0.11
1,0.9,-1.3,0.53,1.08,-0.53,-0.03,-0.15,1.31,0.03,-0.09,-0.04,0.11
1,0.91,-1.31,0.53,1.08,-0.52,-0.03,-0.14,1.24,0.1,-0.1,-0.04,0.11
1,0.92,-1.31,0.53,1.08,-0.5,-0.03,-0.1,1.19,0.12,-0.09,-0.04,0.11
1,0.93,-1.32,0.53,1.08,-0.48,-0.02,-0.12,1.24,0.02,-0.09,-0.04,0.11
1,0.94,-1.32,0.53,1.08,-0.47,-0.02,-0.13,1.26,0.0,-0.09,-0.04,0.11
1,0.95,-1.32,0.53,1.08,-0.45,-0.02,-0.09,1.21,0.08,-0.09,-0.04,0.1
1,0.95,-1.32,0.53,1.08,-0.44,-0.02,-0.13,1.14,0.1,-0.09,-0.04,0.1
1,0.97,-1.33,0.53,1.08,-0.43,-0.02,-0.19,1.11,0.07,-0.09,-0.04,0.1
1,0.98,-1.33,0.53,1.07,-0.41,-0.02,-0.2,1.1,-0.01,-0.08,-0.04,0.1
1,0.99,-1.33,0.53,1.07,-0.4,-0.02,-0.19,1.09,0.03,-0.08,-0.04,0.1
1,0.99,-1.33,0.53,1.07,-0.39,-0.02,-0.16,0.98,0.09,-0.08,-0.04,0.1
1,1.0,-1.34,0.53,1.07,-0.37,-0.02,-0.17,0.94,0.06,-0.07,-0.04,0.1
1,1.02,-1.34,0.53,1.07,-0.36,-0.02,-0.19,0.91,-0.01,-0.07,-0.04,0.09
1,1.03,-1.34,0.53,1.07,-0.35,-0.02,-0.19,0.93,-0.02,-0.07,-0.04,0.09
1,1.03,-1.34,0.53,1.07,-0.34,-0.02,-0.18,0.91,0.04,-0.07,-0.04,0.09
1,1.04,-1.35,0.53,1.07,-0.32,-0.02,-0.16,0.82,0.14,-0.06,-0.04,0.09
1,1.05,-1.35,0.53,1.07,-0.31,-0.02,-0.15,0.75,0.12,-0.06,-0.04,0.09
1,1.06,-1.35,0.53,1.07,-0.3,-0.02,-0.14,0.8,0.04,-0.06,-0.04,0.08
1,1.07,-1.35,0.53,1.06,-0.29,-0.02,-0.14,0.79,0.1,-0.05,-0.04,0.08
1,1.08,-1.35,0.52,1.06,-0.28,-0.02,-0.11,0.75,0.15,-0.05,-0.04,0.08
1,1.09,-1.35,0.52,1.06,-0.27,-0.02,-0.12,0.68,0.19,-0.05,-0.04,0.08
1,1.1,-1.36,0.52,1.06,-0.26,-0.02,-0.11,0.64,0.2,-0.04,-0.04,0.07
1,1.11,-1.36,0.52,1.06,-0.26,-0.01,-0.13,0.64,0.16,-0.04,-0.04,0.07
1,1.12,-1.36,0.52,1.06,-0.24,-0.01,-0.12,0.6,0.08,-0.04,-0.04,0.07
1,1.13,-1.36,0.52,1.06,-0.24,-0.01,-0.11,0.52,0.11,-0.03,-0.04,0.07
1,1.14,-1.36,0.52,1.06,-0.23,-0.01,-0.14,0.48,0.18,-0.03,-0.04,0.06
1,1.14,-1.36,0.52,1.06,-0.22,-0.01,-0.15,0.45,0.2,-0.03,-0.04,0.06
1,1.16,-1.36,0.52,1.06,-0.22,-0.01,-0.15,0.43,0.17,-0.03,-0.04,0.06
1,1.17,-1.37,0.52,1.06,-0.21,-0.01,-0.13,0.38,0.11,-0.02,-0.04,0.06
1,1.17,-1.37,0.52,1.06,-0.2,-0.01,-0.18,0.37,0.04,-0.02,-0.03,0.05
1,1.18,-1.37,0.52,1.06,-0.2,-0.01,-0.17,0.33,0.15,-0.02,-0.03,0.05
1,1.19,-1.37,0.52,1.06,-0.19,-0.01,-0.15,0.28,0.18,-0.01,-0.03,0.05
1,1.21,-1.37,0.52,1.06,-0.19,-0.01,-0.15,0.29,0.17,-0.01,-0.03,0.05
1,1.21,-1.37,0.52,1.05,-0.18,-0.01,-0.15,0.25,0.19,-0.01,-0.03,0.04
1,1.22,-1.37,0.52,1.06,-0.18,-0.01,-0.14,0.19,0.22,-0.01,-0.03,0.04
1,1.23,-1.37,0.52,1.06,-0.17,-0.0,-0.18,0.18,0.16,-0.0,-0.03,0.04
1,1.24,-1.37,0.52,1.06,-0.17,-0.0,-0.21,0.15,0.14,-0.0,-0.03,0.03
1,1.25,-1.37,0.52,1.05,-0.17,-0.0,-0.25,0.13,0.1,0.0,-0.03,0.03
1,1.26,-1.37,0.52,1.05,-0.16,-0.0,-0.22,0.12,0.11,0.0,-0.03,0.03
1,1.27,-1.37,0.52,1.05,-0.16,-0.0,-0.22,0.12,0.13,0.0,-0.03,0.03
1,1.28,-1.37,0.52,1.05,-0.15,-0.0,-0.2,0.12,0.19,0.01,-0.03,0.02
1,1.28,-1.38,0.52,1.05,-0.15,0.0,-0.18,0.11,0.25,0.01,-0.03,0.02
1,1.3,-1.38,0.52,1.05,-0.15,0.0,-0.17,0.06,0.22,0.01,-0.03,0.02
1,1.31,-1.38,0.52,1.05,-0.14,0.0,-0.19,0.04,0.19,0.01,-0.03,0.01
1,1.31,-1.38,0.52,1.05,-0.14,0.01,-0.19,0.02,0.21,0.01,-0.03,0.01
1,1.32,-1.38,0.52,1.05,-0.14,0.01,-0.19,0.02,0.21,0.01,-0.03,0.01
1,1.33,-1.38,0.52,1.05,-0.14,0.01,-0.21,0.05,0.18,0.01,-0.03,0.01
1,1.33,-1.38,0.52,1.05,-0.14,0.01,-0.21,0.05,0.18,0.01,-0.03,0.01
1,1.33,-1.38,0.52,1.05,-0.14,0.01,-0.21,0.05,0.18,0.01,-0.03,0.01
1,1.33,-1.38,0.52,1.05,-0.14,0.01,-0.21,0.05,0.18,0.01,-0.03,0.01
1,1.34,-1.38,0.52,1.05,-0.14,0.01,-0.21,0.05,0.18,0.01,-0.03,0.01
1,1.38,-1.38,0.52,1.05,-0.14,0.01,-0.2,0.02,0.17,0.02,-0.03,0.0
1,1.39,-1.38,0.52,1.05,-0.14,0.01,-0.17,-0.0,0.12,0.02,-0.03,0.0
1,1.4,-1.38,0.52,1.05,-0.14,0.01,-0.2,-0.03,0.08,0.02,-0.03,-0.0
1,1.41,-1.38,0.52,1.05,-0.14,0.01,-0.2,-0.03,0.08,0.02,-0.03,-0.0
1,1.41,-1.38,0.52,1.05,-0.14,0.01,-0.21,-0.08,0.12,0.02,-0.03,-0.0
1,1.41,-1.38,0.52,1.05,-0.14,0.01,-0.21,-0.08,0.12,0.02,-0.03,-0.0
1,1.41,-1.38,0.52,1.05,-0.14,0.01,-0.21,-0.08,0.12,0.02,-0.03,-0.0
1,1.47,-1.39,0.52,1.06,-0.15,0.01,-0.24,-0.1,0.08,0.02,-0.03,-0.01
1,1.49,-1.39,0.52,1.05,-0.14,0.01,-0.22,-0.09,0.07,0.02,-0.03,-0.01
1,1.49,-1.39,0.52,1.05,-0.14,0.01,-0.22,-0.09,0.07,0.02,-0.03,-0.01
1,1.49,-1.39,0.52,1.05,-0.14,0.01,-0.22,-0.09,0.07,0.02,-0.03,-0.01
1,1.49,-1.39,0.52,1.05,-0.14,0.01,-0.22,-0.09,0.07,0.02,-0.03,-0.01
1,1.49,-1.39,0.52,1.01,-0.12,0.01,-0.22,-0.15,0.07,0.02,-0.03,-0.01
1,1.5,-1.39,0.52,1.0,-0.12,0.01,-0.25,-0.14,0.12,0.02,-0.02,-0.02
1,1.51,-1.39,0.52,1.01,-0.13,0.01,-0.3,-0.09,0.19,0.02,-0.02,-0.02
1,1.51,-1.39,0.52,1.01,-0.13,0.01,-0.26,-0.1,0.19,0.02,-0.02,-0.03
1,1.53,-1.39,0.52,1.02,-0.14,0.02,-0.33,-0.08,0.14,0.03,-0.02,-0.03
1,1.54,-1.39,0.52,0.96,-0.11,0.01,-0.32,-0.12,0.08,0.03,-0.01,-0.03
1,1.54,-1.39,0.52,0.96,-0.11,0.02,-0.37,-0.17,0.11,0.03,-0.01,-0.04
1,1.55,-1.39,0.52,0.96,-0.12,0.02,-0.42,-0.16,0.11,0.03,-0.0,-0.04
1,1.56,-1.39,0.52,0.96,-0.12,0.02,-0.51,-0.19,0.06,0.03,0.0,-0.04
1,1.57,-1.39,0.52,0.96,-0.12,0.02,-0.56,-0.14,0.03,0.03,0.0,-0.05
1,1.58,-1.39,0.52,0.96,-0.12,0.02,-0.55,-0.15,0.02,0.03,0.01,-0.05
1,1.59,-1.39,0.52,0.95,-0.12,0.02,-0.59,-0.17,0.02,0.03,0.01,-0.05
1,1.59,-1.4,0.52,0.95,-0.12,0.02,-0.59,-0.16,-0.04,0.03,0.01,-0.05
1,1.6,-1.4,0.52,0.95,-0.13,0.02,-0.59,-0.17,-0.05,0.03,0.01,-0.05
1,1.62,-1.4,0.52,0.95,-0.13,0.02,-0.57,-0.19,-0.04,0.03,0.02,-0.05
1,1.62,-1.4,0.52,0.94,-0.13,0.02,-0.62,-0.17,-0.02,0.03,0.02,-0.06
1,1.63,-1.4,0.52,0.94,-0.13,0.02,-0.69,-0.12,-0.09,0.03,0.02,-0.06
1,1.64,-1.4,0.52,0.94,-0.13,0.02,-0.73,-0.1,-0.03,0.03,0.03,-0.06
1,1.64,-1.4,0.53,0.93,-0.13,0.02,-0.79,-0.11,-0.08,0.03,0.03,-0.06
1,1.66,-1.4,0.53,0.93,-0.13,0.02,-0.85,-0.12,-0.07,0.03,0.04,-0.06
1,1.66,-1.4,0.53,0.92,-0.13,0.02,-0.89,-0.13,-0.04,0.03,0.04,-0.06
1,1.67,-1.4,0.53,0.92,-0.13,0.02,-0.94,-0.13,-0.11,0.03,0.05,-0.06
1,1.68,-1.4,0.53,0.91,-0.13,0.02,-0.99,-0.13,-0.14,0.03,0.05,-0.06
1,1.69,-1.4,0.53,0.9,-0.13,0.02,-1.0,-0.12,-0.12,0.03,0.06,-0.06
1,1.7,-1.4,0.53,0.89,-0.13,0.02,-1.07,-0.09,-0.09,0.03,0.06,-0.07
1,1.7,-1.4,0.53,0.88,-0.13,0.02,-1.12,-0.05,-0.07,0.03,0.07,-0.07
1,1.71,-1.41,0.53,0.88,-0.13,0.02,-1.16,-0.02,-0.11,0.03,0.07,-0.07
1,1.72,-1.41,0.53,0.87,-0.13,0.02,-1.18,-0.01,-0.13,0.03,0.08,-0.07
1,1.72,-1.41,0.53,0.86,-0.13,0.01,-1.25,-0.07,-0.13,0.03,0.08,-0.07
1,1.74,-1.41,0.53,0.85,-0.13,0.01,-1.26,-0.09,-0.12,0.03,0.08,-0.07
1,1.74,-1.41,0.53,0.83,-0.13,0.01,-1.27,-0.11,-0.11,0.03,0.09,-0.07
2,-1.977,1.032,0.576,-0.027,-0.095,-0.0,-0.029,0.506,-0.112,-0.045,0.001,-0.013
2,-1.976,1.032,0.576,-0.027,-0.089,-0.001,-0.034,0.516,-0.112,-0.044,0.002,-0.013
2,-1.976,1.031,0.576,-0.025,-0.083,-0.003,-0.024,0.506,-0.13,-0.042,0.002,-0.013
2,-1.976,1.031,0.576,-0.025,-0.078,-0.004,-0.025,0.501,-0.13,-0.039,0.002,-0.013
2,-1.976,1.031,0.576,-0.024,-0.073,-0.006,-0.029,0.462,-0.104,-0.037,0.003,-0.013
2,-1.976,1.031,0.576,-0.023,-0.067,-0.007,-0.052,0.433,-0.102,-0.035,0.004,-0.013
2,-1.976,1.03,0.576,-0.022,-0.062,-0.008,-0.049,0.435,-0.069,-0.033,0.004,-0.013
2,-1.976,1.03,0.575,-0.022,-0.058,-0.009,-0.069,0.421,-0.071,-0.031,0.005,-0.013
2,-1.976,1.03,0.575,-0.022,-0.053,-0.01,-0.058,0.344,-0.01,-0.029,0.006,-0.013
2,-1.976,1.03,0.575,-0.022,-0.048,-0.011,-0.068,0.333,-0.049,-0.027,0.006,-0.013
2,-1.976,1.03,0.575,-0.022,-0.044,-0.011,-0.073,0.317,-0.068,-0.024,0.007,-0.013
2,-1.976,1.03,0.575,-0.022,-0.04,-0.012,-0.116,0.285,-0.057,-0.022,0.008,-0.013
2,-1.976,1.03,0.574,-0.022,-0.036,-0.013,-0.117,0.28,-0.064,-0.02,0.009,-0.013
2,-1.975,1.03,0.574,-0.023,-0.033,-0.014,-0.116,0.25,-0.095,-0.018,0.009,-0.012
2,-1.976,1.03,0.574,-0.023,-0.03,-0.015,-0.077,0.245,-0.052,-0.015,0.01,-0.012
2,-1.976,1.03,0.573,-0.022,-0.026,-0.016,-0.084,0.22,-0.054,-0.013,0.009,-0.012
2,-1.975,1.03,0.574,-0.022,-0.023,-0.017,-0.093,0.22,-0.031,-0.011,0.009,-0.012
2,-1.975,1.03,0.573,-0.023,-0.021,-0.018,-0.075,0.187,-0.01,-0.009,0.009,-0.012
2,-1.975,1.03,0.573,-0.023,-0.019,-0.018,-0.103,0.13,-0.001,-0.007,0.009,-0.012
2,-1.975,1.03,0.573,-0.023,-0.017,-0.018,-0.116,0.107,-0.023,-0.006,0.009,-0.012
2,-1.975,1.031,0.573,-0.023,-0.013,-0.019,-0.136,0.112,0.043,-0.005,0.009,-0.013
2,-1.975,1.031,0.572,-0.023,-0.012,-0.019,-0.143,0.088,0.027,-0.003,0.008,-0.013
2,-1.975,1.031,0.572,-0.023,-0.01,-0.019,-0.135,0.099,-0.027,-0.002,0.008,-0.013
2,-1.975,1.031,0.572,-0.023,-0.008,-0.019,-0.077,0.042,0.012,-0.001,0.008,-0.013
2,-1.975,1.031,0.572,-0.023,-0.007,-0.019,-0.079,0.106,0.013,0.001,0.008,-0.013
2,-1.975,1.031,0.571,-0.022,-0.005,-0.02,-0.097,0.109,0.043,0.003,0.008,-0.013
2,-1.975,1.032,0.571,-0.022,-0.004,-0.019,-0.069,0.042,0.075,0.005,0.008,-0.013
2,-1.975,1.032,0.571,-0.022,-0.003,-0.019,-0.054,0.04,0.069,0.007,0.007,-0.013
2,-1.975,1.032,0.571,-0.022,-0.003,-0.018,-0.082,-0.008,0.078,0.009,0.007,-0.013
2,-1.975,1.032,0.57,-0.022,-0.003,-0.018,-0.055,-0.03,0.043,0.011,0.006,-0.013
2,-1.974,1.032,0.57,-0.022,-0.003,-0.018,-0.101,-0.057,0.034,0.014,0.006,-0.013
2,-1.975,1.032,0.57,-0.022,-0.004,-0.018,-0.099,-0.107,0.038,0.016,0.005,-0.013
2,-1.975,1.032,0.57,-0.022,-0.005,-0.017,-0.058,-0.106,-0.012,0.018,0.005,-0.013
2,-1.975,1.032,0.569,-0.021,-0.005,-0.018,-0.061,-0.155,0.029,0.02,0.004,-0.013
2,-1.974,1.033,0.569,-0.021,-0.006,-0.018,-0.053,-0.175,0.067,0.021,0.004,-0.013
2,-1.974,1.033,0.569,-0.02,-0.007,-0.017,-0.02,-0.139,0.074,0.023,0.002,-0.013
2,-1.974,1.033,0.569,-0.02,-0.008,-0.017,0.0,-0.177,0.084,0.025,0.001,-0.013
2,-1.974,1.033,0.569,-0.02,-0.009,-0.016,-0.002,-0.192,0.051,0.027,0.0,-0.013
2,-1.974,1.033,0.569,-0.019,-0.011,-0.016,-0.024,-0.171,0.093,0.029,-0.001,-0.013
2,-1.974,1.033,0.568,-0.019,-0.013,-0.015,-0.004,-0.222,0.106,0.031,-0.002,-0.012
2,-1.974,1.033,0.568,-0.018,-0.015,-0.015,-0.001,-0.252,0.038,0.034,-0.004,-0.012
2,-1.974,1.033,0.568,-0.017,-0.017,-0.014,0.048,-0.279,0.042,0.036,-0.007,-0.012
2,-1.974,1.033,0.568,-0.016,-0.02,-0.014,0.086,-0.269,0.083,0.039,-0.009,-0.012
2,-1.973,1.033,0.568,-0.015,-0.023,-0.014,0.059,-0.315,0.1,0.041,-0.011,-0.012
2,-1.973,1.033,0.568,-0.013,-0.026,-0.013,0.078,-0.326,0.096,0.044,-0.014,-0.012
2,-1.973,1.032,0.568,-0.011,-0.029,-0.012,0.144,-0.358,0.118,0.047,-0.017,-0.012
2,-1.973,1.032,0.567,-0.008,-0.034,-0.011,0.177,-0.394,0.132,0.05,-0.02,-0.012
2,-1.973,1.032,0.567,-0.006,-0.038,-0.01,0.198,-0.43,0.08,0.054,-0.023,-0.011
2,-1.972,1.032,0.567,-0.003,-0.043,-0.01,0.183,-0.489,0.069,0.057,-0.027,-0.011
2,-1.972,1.031,0.567,0.0,-0.048,-0.009,0.203,-0.574,0.047,0.061,-0.031,-0.011
2,-1.972,1.031,0.567,0.004,-0.053,-0.009,0.271,-0.518,0.004,0.064,-0.034,-0.01
2,-1.971,1.03,0.567,0.008,-0.058,-0.009,0.306,-0.542,0.012,0.067,-0.037,-0.01
2,-1.971,1.03,0.567,0.012,-0.064,-0.009,0.369,-0.571,-0.028,0.07,-0.04,-0.01
2,-1.971,1.029,0.566,0.016,-0.071,-0.009,0.381,-0.612,0.008,0.072,-0.043,-0.01
2,-1.97,1.028,0.566,0.021,-0.077,-0.01,0.394,-0.612,0.022,0.074,-0.045,-0.01
2,-1.969,1.028,0.566,0.026,-0.084,-0.01,0.435,-0.654,0.058,0.077,-0.047,-0.01
2,-1.969,1.027,0.566,0.031,-0.091,-0.01,0.447,-0.67,0.041,0.079,-0.05,-0.009
2,-1.968,1.026,0.566,0.037,-0.098,-0.01,0.469,-0.695,0.047,0.081,-0.052,-0.009
2,-1.967,1.026,0.566,0.042,-0.106,-0.01,0.49,-0.696,0.012,0.084,-0.054,-0.008
2,-1.966,1.024,0.566,0.048,-0.114,-0.009,0.503,-0.733,0.007,0.086,-0.057,-0.008
2,-1.965,1.023,0.566,0.054,-0.121,-0.01,0.511,-0.785,-0.01,0.088,-0.06,-0.007
2,-1.965,1.022,0.566,0.06,-0.13,-0.01,0.55,-0.775,-0.041,0.091,-0.063,-0.006
2,-1.964,1.021,0.566,0.067,-0.138,-0.01,0.586,-0.84,-0.053,0.093,-0.066,-0.006
2,-1.963,1.02,0.565,0.073,-0.147,-0.011,0.583,-0.813,0.016,0.094,-0.068,-0.005
2,-1.961,1.017,0.565,0.08,-0.156,-0.011,0.611,-0.795,0.028,0.096,-0.071,-0.005
2,-1.96,1.016,0.565,0.088,-0.165,-0.012,0.613,-0.831,0.034,0.098,-0.074,-0.004
2,-1.959,1.015,0.565,0.095,-0.174,-0.011,0.611,-0.832,-0.025,0.1,-0.077,-0.004
2,-1.958,1.013,0.565,0.103,-0.184,-0.012,0.643,-0.85,0.003,0.102,-0.08,-0.003
2,-1.957,1.012,0.565,0.111,-0.193,-0.012,0.691,-0.892,0.009,0.105,-0.082,-0.003
2,-1.955,1.009,0.565,0.119,-0.203,-0.012,0.701,-0.881,-0.032,0.107,-0.085,-0.002
2,-1.953,1.007,0.565,0.128,-0.212,-0.013,0.745,-0.93,-0.062,0.109,-0.087,-0.001
2,-1.952,1.005,0.565,0.137,-0.222,-0.014,0.782,-0.938,-0.023,0.111,-0.09,-0.001
2,-1.95,1.003,0.564,0.146,-0.233,-0.014,0.804,-0.92,-0.005,0.112,-0.091,-0.0
2,-1.949,1.002,0.564,0.156,-0.243,-0.015,0.824,-0.927,-0.028,0.112,-0.091,-0.0
2,-1.946,0.998,0.564,0.165,-0.254,-0.015,0.813,-0.963,-0.04,0.112,-0.093,0.001
2,-1.944,0.996,0.564,0.175,-0.264,-0.016,0.807,-0.927,-0.026,0.113,-0.093,0.001
2,-1.942,0.994,0.564,0.185,-0.275,-0.017,0.813,-0.867,0.004,0.112,-0.095,0.002
2,-1.941,0.991,0.564,0.195,-0.285,-0.017,0.831,-0.899,0.033,0.112,-0.095,0.002
2,-1.939,0.989,0.564,0.206,-0.297,-0.017,0.844,-0.936,0.012,0.113,-0.097,0.003
2,-1.935,0.985,0.564,0.216,-0.308,-0.017,0.862,-0.936,-0.004,0.114,-0.099,0.003
2,-1.933,0.982,0.563,0.227,-0.318,-0.018,0.902,-0.939,0.029,0.117,-0.104,0.005
2,-1.931,0.98,0.563,0.238,-0.329,-0.018,0.87,-0.957,0.01,0.117,-0.104,0.004
2,-1.928,0.977,0.563,0.248,-0.34,-0.018,0.888,-0.976,-0.025,0.119,-0.108,0.005
2,-1.926,0.974,0.563,0.259,-0.351,-0.019,0.939,-0.968,-0.039,0.12,-0.109,0.005
2,-1.921,0.969,0.563,0.271,-0.362,-0.019,0.945,-0.974,-0.023,0.122,-0.112,0.007
2,-1.919,0.966,0.563,0.282,-0.372,-0.02,0.947,-1.009,0.014,0.122,-0.112,0.007
2,-1.916,0.963,0.563,0.293,-0.383,-0.02,0.965,-1.022,0.024,0.127,-0.116,0.008
2,-1.914,0.96,0.562,0.305,-0.395,-0.02,0.997,-1.062,0.039,0.127,-0.116,0.008
2,-1.911,0.957,0.562,0.316,-0.406,-0.02,0.981,-1.053,0.035,0.132,-0.121,0.011
2,-1.905,0.951,0.562,0.328,-0.418,-0.02,1.038,-1.089,0.032,0.132,-0.121,0.01
2,-1.902,0.948,0.562,0.34,-0.43,-0.02,1.002,-1.164,-0.008,0.138,-0.126,0.012
2,-1.9,0.945,0.562,0.353,-0.442,-0.021,1.064,-1.143,0.011,0.138,-0.126,0.012
2,-1.896,0.941,0.562,0.366,-0.455,-0.021,1.089,-1.136,0.008,0.141,-0.13,0.014
2,-1.893,0.937,0.562,0.379,-0.468,-0.021,1.108,-1.156,0.027,0.141,-0.129,0.014
2,-1.886,0.93,0.561,0.392,-0.48,-0.022,1.121,-1.126,0.034,0.142,-0.132,0.016
2,-1.883,0.927,0.561,0.405,-0.492,-0.022,1.09,-1.14,0.045,0.142,-0.132,0.015
2,-1.88,0.923,0.561,0.419,-0.505,-0.022,1.089,-1.105,0.031,0.143,-0.135,0.017
2,-1.876,0.919,0.561,0.433,-0.518,-0.022,1.104,-1.116,0.054,0.143,-0.135,0.017
2,-1.872,0.915,0.561,0.447,-0.531,-0.022,1.115,-1.143,0.075,0.144,-0.137,0.018
2,-1.865,0.907,0.561,0.461,-0.544,-0.022,1.142,-1.162,0.023,0.145,-0.139,0.019
2,-1.861,0.903,0.561,0.475,-0.556,-0.023,1.189,-1.122,0.04,0.147,-0.143,0.021
2,-1.857,0.898,0.561,0.489,-0.57,-0.023,1.223,-1.157,0.01,0.147,-0.143,0.021
2,-1.853,0.894,0.56,0.504,-0.583,-0.023,1.216,-1.124,0.006,0.147,-0.144,0.022
2,-1.848,0.89,0.56,0.518,-0.595,-0.024,1.219,-1.148,-0.004,0.147,-0.144,0.024
2,-1.839,0.88,0.56,0.532,-0.608,-0.024,1.197,-1.093,0.035,0.146,-0.143,0.024
2,-1.835,0.876,0.56,0.547,-0.619,-0.024,1.161,-1.081,0.089,0.144,-0.141,0.025
2,-1.83,0.871,0.56,0.561,-0.632,-0.024,1.123,-1.056,0.086,0.142,-0.139,0.026
2,-1.826,0.866,0.56,0.576,-0.644,-0.024,1.121,-1.076,0.118,0.14,-0.137,0.027
2,-1.821,0.861,0.56,0.589,-0.656,-0.023,1.06,-1.027,0.125,0.138,-0.135,0.028
2,-1.811,0.851,0.56,0.602,-0.667,-0.022,1.046,-1.009,0.116,0.136,-0.134,0.028
2,-1.806,0.846,0.56,0.615,-0.677,-0.021,1.025,-0.986,0.103,0.135,-0.132,0.029
2,-1.801,0.841,0.56,0.629,-0.689,-0.02,1.007,-0.973,0.08,0.134,-0.131,0.03
2,-1.796,0.836,0.56,0.642,-0.7,-0.019,1.035,-0.967,0.077,0.133,-0.13,0.031
2,-1.791,0.831,0.56,0.655,-0.712,-0.019,0.997,-0.92,0.12,0.132,-0.129,0.032
2,-1.78,0.82,0.56,0.668,-0.723,-0.019,0.998,-0.892,0.16,0.131,-0.128,0.032
2,-1.775,0.814,0.56,0.68,-0.732,-0.017,0.991,-0.871,0.167,0.13,-0.126,0.034
2,-1.769,0.809,0.56,0.693,-0.742,-0.016,0.968,-0.905,0.169,0.129,-0.125,0.035
2,-1.763,0.803,0.56,0.705,-0.753,-0.014,0.937,-0.88,0.177,0.129,-0.124,0.036
2,-1.758,0.798,0.56,0.718,-0.764,-0.013,0.949,-0.877,0.192,0.129,-0.124,0.037
2,-1.746,0.786,0.56,0.73,-0.774,-0.012,0.972,-0.879,0.159,0.13,-0.124,0.038
2,-1.74,0.781,0.56,0.741,-0.782,-0.01,0.967,-0.852,0.134,0.13,-0.123,0.039
2,-1.734,0.775,0.56,0.754,-0.793,-0.009,0.934,-0.902,0.116,0.13,-0.123,0.04
2,-1.728,0.769,0.56,0.766,-0.804,-0.008,0.944,-0.88,0.097,0.131,-0.123,0.041
2,-1.722,0.763,0.56,0.778,-0.815,-0.008,0.897,-0.859,0.111,0.13,-0.121,0.042
2,-1.709,0.751,0.561,0.789,-0.825,-0.007,0.89,-0.844,0.16,0.129,-0.119,0.043
2,-1.703,0.744,0.561,0.801,-0.834,-0.006,0.803,-0.803,0.151,0.127,-0.116,0.044
2,-1.696,0.739,0.561,0.812,-0.844,-0.005,0.779,-0.755,0.174,0.123,-0.112,0.045
2,-1.69,0.732,0.561,0.824,-0.854,-0.004,0.755,-0.748,0.179,0.12,-0.11,0.046
2,-1.684,0.726,0.561,0.834,-0.864,-0.003,0.7,-0.695,0.177,0.117,-0.107,0.046
2,-1.67,0.713,0.562,0.844,-0.873,-0.002,0.654,-0.664,0.192,0.113,-0.104,0.047
2,-1.663,0.706,0.562,0.855,-0.879,-0.0,0.647,-0.63,0.236,0.11,-0.102,0.048
2,-1.657,0.7,0.562,0.865,-0.888,0.002,0.61,-0.562,0.199,0.107,-0.1,0.049
2,-1.65,0.693,0.562,0.875,-0.896,0.003,0.597,-0.555,0.151,0.104,-0.097,0.05
2,-1.643,0.687,0.562,0.884,-0.904,0.004,0.574,-0.515,0.168,0.102,-0.095,0.051
2,-1.629,0.674,0.563,0.893,-0.911,0.004,0.546,-0.497,0.154,0.1,-0.092,0.052
2,-1.622,0.667,0.563,0.902,-0.917,0.005,0.512,-0.484,0.179,0.098,-0.089,0.053
2,-1.615,0.66,0.563,0.91,-0.923,0.007,0.451,-0.468,0.186,0.095,-0.085,0.054
2,-1.608,0.654,0.564,0.919,-0.93,0.008,0.43,-0.441,0.205,0.092,-0.082,0.055
2,-1.601,0.647,0.564,0.926,-0.936,0.01,0.362,-0.434,0.19,0.09,-0.079,0.056
2,-1.586,0.633,0.565,0.933,-0.942,0.012,0.343,-0.417,0.171,0.087,-0.076,0.057
2,-1.579,0.627,0.565,0.939,-0.945,0.014,0.327,-0.389,0.174,0.085,-0.074,0.058
2,-1.571,0.62,0.565,0.946,-0.95,0.016,0.314,-0.343,0.164,0.081,-0.072,0.059
2,-1.564,0.613,0.566,0.953,-0.956,0.017,0.293,-0.325,0.156,0.079,-0.07,0.06
2,-1.557,0.606,0.566,0.959,-0.96,0.019,0.279,-0.272,0.135,0.076,-0.067,0.061
2,-1.542,0.592,0.567,0.964,-0.964,0.02,0.247,-0.213,0.145,0.073,-0.065,0.061
2,-1.535,0.585,0.567,0.969,-0.965,0.022,0.206,-0.217,0.148,0.071,-0.062,0.062
2,-1.527,0.579,0.568,0.975,-0.969,0.023,0.187,-0.198,0.142,0.068,-0.059,0.063
2,-1.52,0.572,0.568,0.979,-0.972,0.026,0.133,-0.138,0.136,0.065,-0.056,0.065
2,-1.512,0.565,0.568,0.984,-0.975,0.027,0.099,-0.121,0.143,0.062,-0.054,0.066
2,-1.497,0.551,0.569,0.988,-0.977,0.028,0.052,-0.115,0.1,0.059,-0.051,0.067
2,-1.489,0.544,0.57,0.99,-0.977,0.03,0.029,-0.094,0.135,0.057,-0.05,0.068
2,-1.482,0.537,0.57,0.995,-0.979,0.031,0.026,-0.026,0.077,0.054,-0.049,0.069
2,-1.474,0.53,0.57,0.999,-0.982,0.032,0.019,-0.013,0.055,0.052,-0.048,0.07
2,-1.467,0.524,0.571,1.002,-0.982,0.033,-0.034,0.012,0.045,0.049,-0.046,0.071
2,-1.452,0.51,0.572,1.005,-0.983,0.033,-0.043,0.034,0.047,0.046,-0.044,0.073
2,-1.444,0.503,0.572,1.006,-0.98,0.035,-0.076,0.075,0.007,0.044,-0.042,0.074
2,-1.436,0.496,0.573,1.009,-0.981,0.035,-0.12,0.072,0.008,0.041,-0.04,0.075
2,-1.429,0.489,0.573,1.012,-0.982,0.036,-0.092,0.113,-0.001,0.039,-0.039,0.077
2,-1.421,0.482,0.573,1.014,-0.981,0.036,-0.092,0.091,0.062,0.037,-0.037,0.078
2,-1.406,0.469,0.575,1.015,-0.981,0.037,-0.092,0.123,0.094,0.036,-0.037,0.079
2,-1.398,0.462,0.575,1.016,-0.978,0.037,-0.118,0.138,0.053,0.035,-0.036,0.08
2,-1.391,0.455,0.575,1.018,-0.978,0.038,-0.117,0.167,0.014,0.033,-0.035,0.082
2,-1.383,0.449,0.576,1.02,-0.977,0.039,-0.12,0.172,-0.014,0.031,-0.033,0.083
2,-1.375,0.442,0.576,1.022,-0.976,0.038,-0.171,0.205,-0.067,0.03,-0.033,0.084
2,-1.36,0.429,0.577,1.023,-0.975,0.038,-0.201,0.23,-0.074,0.028,-0.031,0.086
2,-1.352,0.422,0.577,1.022,-0.969,0.038,-0.188,0.257,-0.019,0.026,-0.03,0.087
2,-1.345,0.415,0.578,1.024,-0.969,0.038,-0.168,0.237,-0.014,0.025,-0.029,0.088
2,-1.337,0.408,0.578,1.025,-0.967,0.038,-0.194,0.202,-0.019,0.025,-0.028,0.089
2,-1.329,0.402,0.579,1.026,-0.966,0.037,-0.202,0.239,-0.085,0.024,-0.029,0.091
2,-1.314,0.389,0.58,1.026,-0.964,0.037,-0.212,0.276,-0.126,0.023,-0.028,0.092
2,-1.307,0.382,0.58,1.025,-0.958,0.036,-0.205,0.274,-0.155,0.022,-0.029,0.094
2,-1.299,0.376,0.581,1.026,-0.956,0.035,-0.178,0.303,-0.154,0.022,-0.029,0.095
2,-1.291,0.369,0.581,1.027,-0.954,0.034,-0.191,0.292,-0.076,0.021,-0.029,0.097
2,-1.284,0.363,0.581,1.028,-0.951,0.032,-0.169,0.294,-0.033,0.02,-0.028,0.099
2,-1.268,0.35,0.582,1.028,-0.948,0.032,-0.206,0.245,-0.075,0.019,-0.027,0.101
2,-1.261,0.344,0.582,1.025,-0.942,0.033,-0.243,0.242,-0.128,0.019,-0.025,0.102
2,-1.253,0.338,0.582,1.026,-0.939,0.032,-0.277,0.284,-0.15,0.018,-0.023,0.104
2,-1.246,0.331,0.583,1.026,-0.936,0.031,-0.264,0.336,-0.117,0.018,-0.021,0.106
2,-1.238,0.325,0.583,1.025,-0.934,0.03,-0.267,0.309,-0.071,0.018,-0.019,0.107
2,-1.223,0.312,0.584,1.024,-0.93,0.03,-0.291,0.285,-0.142,0.018,-0.018,0.109
2,-1.216,0.306,0.584,1.02,-0.922,0.03,-0.341,0.259,-0.252,0.018,-0.017,0.11
2,-1.208,0.3,0.584,1.02,-0.92,0.028,-0.389,0.286,-0.274,0.018,-0.016,0.112
2,-1.2,0.294,0.585,1.019,-0.917,0.025,-0.302,0.263,-0.136,0.018,-0.016,0.113
2,-1.193,0.288,0.585,1.018,-0.914,0.023,-0.308,0.234,-0.145,0.019,-0.016,0.114
2,-1.178,0.276,0.585,1.017,-0.911,0.022,-0.365,0.27,-0.258,0.019,-0.017,0.115
2,-1.17,0.27,0.585,1.013,-0.904,0.02,-0.373,0.312,-0.229,0.019,-0.017,0.116
2,-1.163,0.264,0.585,1.013,-0.901,0.017,-0.313,0.257,-0.178,0.02,-0.018,0.116
2,-1.155,0.258,0.585,1.012,-0.899,0.015,-0.261,0.182,-0.139,0.022,-0.019,0.117
2,-1.148,0.252,0.586,1.011,-0.896,0.014,-0.324,0.22,-0.212,0.023,-0.02,0.118
2,-1.133,0.24,0.586,1.01,-0.893,0.012,-0.318,0.244,-0.25,0.024,-0.022,0.119
2,-1.126,0.234,0.586,1.006,-0.887,0.009,-0.228,0.228,-0.167,0.026,-0.024,0.12
2,-1.118,0.228,0.586,1.006,-0.884,0.007,-0.173,0.162,-0.181,0.026,-0.026,0.121
2,-1.111,0.222,0.586,1.006,-0.882,0.005,-0.207,0.186,-0.227,0.027,-0.027,0.122
2,-1.104,0.216,0.586,1.006,-0.879,0.002,-0.217,0.23,-0.278,0.028,-0.028,0.122
2,-1.089,0.205,0.586,1.004,-0.876,-0.0,-0.195,0.212,-0.198,0.028,-0.028,0.123
2,-1.081,0.199,0.586,1.001,-0.868,-0.002,-0.176,0.114,-0.168,0.029,-0.027,0.124
2,-1.074,0.193,0.586,1.0,-0.866,-0.004,-0.177,0.176,-0.231,0.03,-0.027,0.125
2,-1.067,0.187,0.586,1.0,-0.864,-0.007,-0.216,0.177,-0.207,0.032,-0.027,0.125
2,-1.059,0.181,0.586,1.0,-0.864,-0.007,-0.216,0.177,-0.207,0.032,-0.027,0.125
2,-1.059,0.181,0.586,1.0,-0.864,-0.007,-0.216,0.177,-0.207,0.032,-0.027,0.125
2,-1.059,0.181,0.586,1.0,-0.864,-0.007,-0.216,0.177,-0.207,0.032,-0.027,0.125
2,-1.03,0.158,0.586,1.002,-0.864,-0.011,-0.149,0.03,-0.045,0.033,-0.028,0.125
2,-1.022,0.153,0.585,1.009,-0.87,-0.013,-0.16,0.11,-0.143,0.037,-0.031,0.127
2,-1.015,0.147,0.585,0.982,-0.836,-0.014,-0.111,-0.069,-0.1,0.04,-0.031,0.127
2,-1.001,0.136,0.585,0.982,-0.835,-0.015,-0.198,0.059,-0.143,0.041,-0.03,0.128
2,-0.993,0.13,0.585,0.98,-0.83,-0.017,-0.228,0.098,-0.21,0.043,-0.031,0.128
2,-0.986,0.124,0.585,0.981,-0.831,-0.019,-0.228,0.098,-0.21,0.043,-0.031,0.128
2,-0.979,0.119,0.584,0.981,-0.831,-0.019,-0.154,-0.026,-0.099,0.045,-0.031,0.129
2,-0.979,0.119,0.584,0.981,-0.831,-0.019,-0.154,-0.026,-0.099,0.045,-0.031,0.129
2,-0.971,0.113,0.584,0.982,-0.83,-0.021,-0.154,-0.026,-0.099,0.045,-0.031,0.129
2,-0.949,0.096,0.584,0.982,-0.83,-0.021,-0.094,-0.089,-0.096,0.047,-0.031,0.129
2,-0.942,0.09,0.583,0.989,-0.839,-0.024,-0.117,-0.064,-0.085,0.05,-0.035,0.13
2,-0.935,0.085,0.583,0.974,-0.819,-0.027,-0.071,-0.033,-0.148,0.052,-0.038,0.13
2,-0.927,0.079,0.583,0.976,-0.82,-0.03,-0.044,-0.078,-0.097,0.056,-0.042,0.13
2,-0.913,0.068,0.582,0.978,-0.821,-0.031,-0.031,-0.148,-0.059,0.057,-0.045,0.13
2,-0.905,0.062,0.582,0.979,-0.819,-0.032,-0.028,-0.111,-0.129,0.059,-0.047,0.13
2,-0.898,0.056,0.582,0.982,-0.821,-0.034,-0.031,-0.033,-0.179,0.061,-0.05,0.13
2,-0.89,0.051,0.582,0.986,-0.823,-0.037,0.115,-0.13,-0.077,0.063,-0.053,0.129
2,-0.883,0.045,0.581,0.99,-0.825,-0.039,0.205,-0.25,-0.01,0.065,-0.057,0.129
2,-0.868,0.034,0.581,0.993,-0.827,-0.04,0.196,-0.223,-0.123,0.067,-0.061,0.129
2,-0.861,0.028,0.58,0.995,-0.826,-0.042,0.143,-0.138,-0.179,0.069,-0.064,0.128
2,-0.853,0.022,0.58,1.0,-0.828,-0.045,0.207,-0.165,-0.083,0.07,-0.066,0.128
2,-0.846,0.016,0.579,1.005,-0.831,-0.046,0.261,-0.228,-0.057,0.071,-0.068,0.128
2,-0.838,0.011,0.579,1.01,-0.833,-0.047,0.272,-0.262,-0.113,0.072,-0.07,0.128
2,-0.823,-0.001,0.579,1.015,-0.835,-0.049,0.247,-0.258,-0.112,0.073,-0.07,0.127
2,-0.815,-0.007,0.578,1.018,-0.835,-0.052,0.244,-0.218,-0.091,0.074,-0.071,0.127
2,-0.808,-0.013,0.578,1.024,-0.837,-0.054,0.258,-0.281,0.025,0.074,-0.071,0.127
2,-0.8,-0.019,0.577,1.029,-0.84,-0.054,0.228,-0.275,0.012,0.074,-0.071,0.127
2,-0.792,-0.024,0.577,1.034,-0.842,-0.054,0.195,-0.178,-0.082,0.073,-0.071,0.127
2,-0.777,-0.036,0.577,1.039,-0.845,-0.056,0.244,-0.178,-0.046,0.073,-0.071,0.127
2,-0.769,-0.042,0.576,1.042,-0.844,-0.058,0.32,-0.214,0.023,0.074,-0.073,0.127
2,-0.761,-0.047,0.576,1.048,-0.848,-0.059,0.31,-0.269,0.031,0.073,-0.073,0.127
2,-0.753,-0.053,0.575,1.054,-0.851,-0.059,0.278,-0.229,-0.007,0.073,-0.074,0.126
2,-0.745,-0.059,0.575,1.06,-0.853,-0.06,0.244,-0.187,-0.007,0.073,-0.073,0.126
2,-0.73,-0.071,0.574,1.065,-0.856,-0.061,0.227,-0.177,-0.019,0.073,-0.073,0.126
2,-0.722,-0.077,0.574,1.067,-0.854,-0.062,0.294,-0.264,0.073,0.073,-0.071,0.126
2,-0.714,-0.083,0.574,1.073,-0.858,-0.062,0.298,-0.292,0.096,0.073,-0.07,0.126
2,-0.706,-0.089,0.573,1.079,-0.861,-0.061,0.208,-0.266,0.016,0.073,-0.068,0.126
2,-0.698,-0.095,0.573,1.079,-0.861,-0.061,0.208,-0.266,0.016,0.073,-0.068,0.126
2,-0.682,-0.107,0.572,1.088,-0.865,-0.062,0.196,-0.24,0.103,0.072,-0.065,0.126
2,-0.674,-0.113,0.572,1.089,-0.864,-0.061,0.235,-0.229,0.115,0.071,-0.065,0.126
2,-0.665,-0.118,0.572,1.094,-0.866,-0.06,0.151,-0.136,-0.001,0.07,-0.064,0.126
2,-0.657,-0.124,0.571,1.099,-0.869,-0.06,0.129,-0.147,0.02,0.069,-0.064,0.126
2,-0.649,-0.13,0.571,1.103,-0.871,-0.061,0.189,-0.182,0.149,0.068,-0.063,0.126
2,-0.633,-0.142,0.57,1.107,-0.873,-0.06,0.196,-0.195,0.187,0.067,-0.062,0.126
2,-0.624,-0.148,0.57,1.109,-0.872,-0.058,0.125,-0.222,0.172,0.066,-0.061,0.126
2,-0.616,-0.154,0.569,1.113,-0.874,-0.057,0.071,-0.152,0.084,0.065,-0.06,0.126
2,-0.608,-0.16,0.569,1.117,-0.876,-0.056,0.083,-0.095,0.104,0.064,-0.059,0.126
2,-0.6,-0.166,0.569,1.121,-0.878,-0.056,0.1,-0.056,0.165,0.063,-0.058,0.126
2,-0.583,-0.178,0.569,1.124,-0.879,-0.054,0.106,-0.144,0.179,0.063,-0.057,0.126
2,-0.575,-0.184,0.568,1.125,-0.877,-0.053,0.123,-0.186,0.143,0.063,-0.056,0.126
2,-0.567,-0.19,0.568,1.128,-0.879,-0.051,0.046,-0.127,0.049,0.062,-0.055,0.126
2,-0.558,-0.196,0.568,1.132,-0.881,-0.051,0.092,-0.053,0.142,0.062,-0.055,0.126
2,-0.55,-0.202,0.568,1.135,-0.882,-0.05,0.136,-0.118,0.203,0.061,-0.054,0.126
2,-0.533,-0.214,0.567,1.137,-0.883,-0.048,0.068,-0.147,0.181,0.061,-0.053,0.126
2,-0.525,-0.22,0.567,1.137,-0.881,-0.045,-0.007,-0.137,0.078,0.06,-0.052,0.126
2,-0.517,-0.226,0.567,1.14,-0.882,-0.045,-0.037,-0.076,0.076,0.06,-0.051,0.126
2,-0.508,-0.232,0.567,1.143,-0.884,-0.044,0.032,-0.11,0.129,0.059,-0.05,0.126
2,-0.5,-0.238,0.566,1.145,-0.885,-0.043,0.069,-0.157,0.206,0.058,-0.049,0.126
2,-0.483,-0.25,0.566,1.147,-0.885,-0.041,-0.012,-0.11,0.097,0.058,-0.049,0.126
2,-0.475,-0.256,0.566,1.146,-0.883,-0.04,-0.053,-0.003,0.001,0.057,-0.048,0.126
2,-0.466,-0.262,0.566,1.149,-0.884,-0.04,-0.038,-0.044,0.09,0.056,-0.048,0.126
2,-0.458,-0.269,0.565,1.151,-0.884,-0.038,-0.015,-0.117,0.174,0.055,-0.046,0.126
2,-0.45,-0.274,0.566,1.152,-0.884,-0.036,-0.004,-0.094,0.163,0.054,-0.045,0.126
2,-0.433,-0.286,0.565,1.154,-0.885,-0.035,-0.082,-0.037,0.065,0.054,-0.044,0.125
2,-0.424,-0.292,0.565,1.152,-0.882,-0.034,-0.087,-0.048,0.09,0.054,-0.043,0.125
2,-0.416,-0.298,0.565,1.154,-0.883,-0.033,-0.064,-0.111,0.169,0.053,-0.042,0.124
2,-0.408,-0.304,0.565,1.155,-0.883,-0.031,-0.094,-0.078,0.164,0.052,-0.04,0.124
2,-0.399,-0.31,0.565,1.156,-0.883,-0.029,-0.164,-0.024,0.058,0.053,-0.04,0.123
2,-0.382,-0.322,0.565,1.157,-0.884,-0.029,-0.158,-0.057,0.051,0.053,-0.039,0.123
2,-0.374,-0.328,0.564,1.154,-0.879,-0.028,-0.085,-0.099,0.118,0.053,-0.038,0.123
2,-0.366,-0.334,0.565,1.155,-0.88,-0.026,-0.091,-0.131,0.093,0.052,-0.037,0.123
2,-0.357,-0.34,0.565,1.156,-0.881,-0.025,-0.095,-0.082,0.061,0.052,-0.037,0.122
2,-0.349,-0.346,0.564,1.157,-0.881,-0.024,-0.161,-0.033,-0.01,0.052,-0.036,0.122
2,-0.332,-0.358,0.564,1.157,-0.882,-0.024,-0.167,-0.056,0.108,0.052,-0.034,0.122
2,-0.324,-0.364,0.564,1.153,-0.878,-0.023,-0.193,-0.133,0.081,0.052,-0.033,0.121
2,-0.315,-0.37,0.564,1.154,-0.879,-0.022,-0.239,-0.123,-0.006,0.051,-0.03,0.121
2,-0.307,-0.376,0.564,1.154,-0.879,-0.021,-0.235,-0.016,0.026,0.051,-0.029,0.121
2,-0.299,-0.382,0.564,1.153,-0.879,-0.021,-0.21,-0.002,0.08,0.05,-0.028,0.121
2,-0.282,-0.394,0.564,1.152,-0.88,-0.021,-0.219,-0.098,0.103,0.05,-0.027,0.121
2,-0.274,-0.4,0.564,1.148,-0.876,-0.019,-0.277,-0.035,-0.029,0.05,-0.026,0.121
2,-0.265,-0.406,0.564,1.148,-0.877,-0.019,-0.252,0.017,-0.036,0.05,-0.026,0.121
2,-0.257,-0.412,0.564,1.147,-0.877,-0.019,-0.19,-0.092,0.078,0.05,-0.025,0.121
2,-0.249,-0.417,0.564,1.147,-0.878,-0.019,-0.206,-0.099,0.072,0.05,-0.025,0.12
2,-0.232,-0.429,0.564,1.145,-0.877,-0.018,-0.236,-0.088,-0.013,0.05,-0.024,0.12
2,-0.224,-0.435,0.564,1.14,-0.873,-0.017,-0.273,-0.037,-0.048,0.05,-0.024,0.12
2,-0.216,-0.441,0.564,1.14,-0.874,-0.017,-0.268,-0.067,0.035,0.05,-0.023,0.119
2,-0.208,-0.447,0.564,1.139,-0.874,-0.017,-0.283,-0.113,-0.023,0.05,-0.023,0.119
2,-0.199,-0.453,0.564,1.138,-0.875,-0.017,-0.308,-0.078,-0.019,0.051,-0.023,0.119
2,-0.183,-0.465,0.564,1.136,-0.875,-0.017,-0.263,-0.034,0.004,0.052,-0.024,0.118
2,-0.175,-0.471,0.563,1.131,-0.871,-0.017,-0.205,-0.133,0.069,0.053,-0.024,0.118
2,-0.166,-0.477,0.564,1.13,-0.872,-0.016,-0.223,-0.126,-0.015,0.053,-0.024,0.118
2,-0.158,-0.483,0.563,1.13,-0.872,-0.016,-0.283,-0.033,-0.128,0.054,-0.024,0.118
2,-0.15,-0.489,0.563,1.128,-0.872,-0.017,-0.219,-0.102,-0.032,0.054,-0.025,0.117
2,-0.134,-0.501,0.563,1.127,-0.873,-0.017,-0.201,-0.142,0.003,0.055,-0.024,0.117
2,-0.126,-0.506,0.563,1.122,-0.869,-0.017,-0.236,-0.163,-0.041,0.055,-0.024,0.116
2,-0.118,-0.513,0.563,1.122,-0.87,-0.017,-0.266,-0.046,-0.089,0.055,-0.024,0.116
2,-0.11,-0.518,0.563,1.121,-0.87,-0.018,-0.235,-0.069,0.001,0.055,-0.023,0.116
2,-0.101,-0.524,0.563,1.12,-0.871,-0.018,-0.236,-0.09,0.05,0.055,-0.023,0.115
2,-0.085,-0.536,0.563,1.118,-0.871,-0.018,-0.286,-0.014,-0.094,0.055,-0.024,0.115
2,-0.077,-0.542,0.563,1.113,-0.868,-0.019,-0.21,-0.038,-0.065,0.055,-0.024,0.115
2,-0.069,-0.548,0.563,1.112,-0.869,-0.02,-0.143,-0.14,0.03,0.055,-0.024,0.115
2,-0.061,-0.554,0.562,1.112,-0.869,-0.02,-0.143,-0.14,0.03,0.055,-0.024,0.114
2,-0.053,-0.56,0.562,1.115,-0.874,-0.02,-0.143,-0.14,0.03,0.055,-0.024,0.114
2,-0.037,-0.571,0.562,1.113,-0.876,-0.022,-0.214,-0.096,-0.005,0.055,-0.025,0.114
2,-0.029,-0.577,0.562,1.099,-0.862,-0.022,-0.171,-0.135,0.045,0.055,-0.025,0.114
2,-0.021,-0.583,0.562,1.098,-0.863,-0.022,-0.199,-0.145,-0.044,0.056,-0.023,0.113
2,-0.013,-0.589,0.562,1.098,-0.864,-0.022,-0.316,-0.084,-0.138,0.057,-0.022,0.113
2,-0.005,-0.595,0.562,1.096,-0.865,-0.024,-0.276,-0.072,-0.056,0.057,-0.021,0.113
2,0.011,-0.607,0.561,1.095,-0.865,-0.025,-0.23,-0.156,0.019,0.057,-0.02,0.113
2,0.019,-0.613,0.561,1.089,-0.862,-0.024,-0.281,-0.136,-0.144,0.058,-0.019,0.112
2,0.027,-0.619,0.561,1.088,-0.863,-0.025,-0.304,-0.09,-0.144,0.058,-0.019,0.112
2,0.035,-0.625,0.561,1.087,-0.864,-0.027,-0.204,-0.149,-0.003,0.058,-0.02,0.112
2,0.043,-0.631,0.561,1.085,-0.865,-0.027,-0.231,-0.145,-0.04,0.058,-0.021,0.111
2,0.058,-0.643,0.561,1.083,-0.866,-0.027,-0.261,-0.084,-0.141,0.059,-0.022,0.111
2,0.066,-0.649,0.56,1.078,-0.863,-0.028,-0.225,-0.074,-0.084,0.059,-0.023,0.111
2,0.074,-0.654,0.56,1.078,-0.864,-0.029,-0.159,-0.179,-0.038,0.059,-0.025,0.11
2,0.082,-0.661,0.56,1.077,-0.866,-0.03,-0.161,-0.172,-0.104,0.059,-0.027,0.11
2,0.09,-0.667,0.56,1.076,-0.867,-0.031,-0.172,-0.092,-0.081,0.059,-0.03,0.11
2,0.105,-0.678,0.559,1.076,-0.868,-0.032,-0.091,-0.105,-0.025,0.059,-0.033,0.109
2,0.113,-0.684,0.559,1.072,-0.865,-0.033,-0.114,-0.142,-0.086,0.06,-0.035,0.109
2,0.121,-0.69,0.559,1.073,-0.867,-0.034,-0.106,-0.111,-0.1,0.06,-0.038,0.108
2,0.129,-0.696,0.558,1.073,-0.868,-0.035,-0.066,-0.134,-0.06,0.061,-0.041,0.107
2,0.137,-0.702,0.558,1.074,-0.869,-0.036,-0.004,-0.192,-0.016,0.062,-0.043,0.106
2,0.153,-0.714,0.558,1.074,-0.871,-0.037,0.014,-0.157,-0.019,0.063,-0.044,0.106
2,0.161,-0.72,0.557,1.072,-0.868,-0.037,0.034,-0.113,-0.101,0.064,-0.045,0.105
2,0.169,-0.726,0.557,1.074,-0.871,-0.039,0.044,-0.113,-0.049,0.065,-0.046,0.104
2,0.177,-0.732,0.557,1.075,-0.872,-0.04,0.057,-0.21,0.05,0.066,-0.047,0.104
2,0.184,-0.738,0.557,1.077,-0.874,-0.04,0.017,-0.249,-0.007,0.067,-0.047,0.103
2,0.2,-0.75,0.556,1.078,-0.876,-0.04,-0.044,-0.205,-0.062,0.068,-0.048,0.102
2,0.208,-0.756,0.556,1.076,-0.874,-0.041,0.012,-0.183,-0.022,0.068,-0.049,0.101
2,0.216,-0.763,0.556,1.079,-0.877,-0.042,0.072,-0.213,0.031,0.068,-0.049,0.101
2,0.224,-0.769,0.556,1.08,-0.879,-0.042,0.054,-0.209,0.028,0.068,-0.05,0.1
2,0.232,-0.775,0.555,1.082,-0.881,-0.042,0.008,-0.166,-0.049,0.068,-0.05,0.099
2,0.248,-0.787,0.555,1.085,-0.883,-0.044,0.052,-0.17,-0.049,0.068,-0.052,0.099
2,0.256,-0.793,0.555,1.083,-0.881,-0.044,0.064,-0.198,0.044,0.068,-0.052,0.098
2,0.264,-0.799,0.554,1.086,-0.884,-0.044,0.074,-0.246,0.025,0.068,-0.053,0.098
2,0.272,-0.805,0.554,1.089,-0.886,-0.044,0.024,-0.161,-0.043,0.067,-0.053,0.097
2,0.28,-0.811,0.554,1.091,-0.888,-0.045,0.068,-0.142,0.037,0.067,-0.054,0.097
2,0.296,-0.824,0.553,1.093,-0.889,-0.045,0.111,-0.206,0.08,0.066,-0.054,0.097
2,0.304,-0.829,0.553,1.092,-0.887,-0.043,0.103,-0.216,0.09,0.065,-0.055,0.097
2,0.313,-0.836,0.553,1.096,-0.889,-0.044,0.054,-0.117,0.022,0.065,-0.056,0.096
2,0.321,-0.842,0.553,1.099,-0.891,-0.044,0.066,-0.103,-0.001,0.064,-0.056,0.096
2,0.329,-0.848,0.552,1.101,-0.892,-0.044,0.085,-0.131,0.012,0.064,-0.056,0.095
2,0.345,-0.861,0.552,1.104,-0.894,-0.044,0.117,-0.193,0.07,0.063,-0.056,0.094
2,0.353,-0.867,0.552,1.103,-0.891,-0.043,0.122,-0.173,0.039,0.062,-0.056,0.094
2,0.361,-0.873,0.551,1.106,-0.893,-0.043,0.104,-0.079,-0.036,0.06,-0.055,0.093
2,0.37,-0.879,0.551,1.11,-0.895,-0.044,0.068,-0.04,0.04,0.059,-0.055,0.093
2,0.378,-0.885,0.551,1.113,-0.896,-0.044,0.073,-0.062,0.058,0.057,-0.055,0.092
2,0.394,-0.897,0.55,1.115,-0.897,-0.044,0.075,-0.036,0.016,0.055,-0.054,0.092
2,0.403,-0.904,0.55,1.114,-0.894,-0.044,0.0,-0.011,-0.053,0.053,-0.053,0.092
2,0.411,-0.91,0.55,1.117,-0.895,-0.045,0.011,0.051,0.011,0.05,-0.052,0.091
2,0.419,-0.916,0.55,1.12,-0.895,-0.045,0.091,0.005,0.095,0.046,-0.051,0.091
2,0.427,-0.922,0.55,1.122,-0.896,-0.045,0.02,-0.003,0.095,0.043,-0.051,0.09
2,0.444,-0.934,0.549,1.124,-0.895,-0.044,-0.027,0.114,0.05,0.038,-0.05,0.09
2,0.452,-0.94,0.549,1.124,-0.891,-0.044,-0.027,0.114,0.05,0.038,-0.05,0.09
2,0.461,-0.947,0.549,1.124,-0.891,-0.044,-0.015,0.152,0.14,0.034,-0.05,0.089
2,0.469,-0.953,0.549,1.134,-0.896,-0.041,0.004,0.224,0.198,0.029,-0.049,0.088
2,0.477,-0.959,0.548,1.128,-0.887,-0.039,-0.073,0.275,0.077,0.021,-0.048,0.087
2,0.494,-0.971,0.548,1.13,-0.885,-0.039,-0.089,0.301,0.111,0.017,-0.047,0.086
2,0.502,-0.977,0.548,1.13,-0.879,-0.039,-0.057,0.294,0.174,0.013,-0.047,0.086
2,0.51,-0.983,0.548,1.132,-0.876,-0.037,-0.081,0.348,0.193,0.008,-0.046,0.086
2,0.519,-0.988,0.548,1.134,-0.873,-0.035,-0.122,0.425,0.12,0.004,-0.045,0.085
2,0.527,-0.994,0.548,1.135,-0.869,-0.034,-0.139,0.54,0.075,-0.001,-0.044,0.085
2,0.544,-1.006,0.547,1.136,-0.864,-0.033,-0.152,0.506,0.136,-0.005,-0.043,0.084
2,0.552,-1.012,0.547,1.136,-0.864,-0.033,-0.152,0.506,0.136,-0.005,-0.043,0.084
2,0.56,-1.017,0.547,1.134,-0.855,-0.032,-0.137,0.503,0.196,-0.005,-0.043,0.084
2,0.569,-1.023,0.547,1.136,-0.851,-0.03,-0.137,0.503,0.196,-0.009,-0.042,0.084
2,0.577,-1.028,0.547,1.141,-0.843,-0.028,-0.183,0.667,0.151,-0.018,-0.04,0.083
2,0.594,-1.039,0.547,1.137,-0.833,-0.026,-0.171,0.65,0.199,-0.026,-0.038,0.082
2,0.602,-1.045,0.547,1.135,-0.822,-0.024,-0.22,0.702,0.139,-0.031,-0.037,0.081
2,0.61,-1.05,0.547,1.135,-0.815,-0.022,-0.271,0.783,0.038,-0.036,-0.036,0.081
2,0.618,-1.055,0.547,1.136,-0.808,-0.022,-0.249,0.851,0.08,-0.036,-0.036,0.081
2,0.627,-1.061,0.547,1.135,-0.799,-0.02,-0.231,0.805,0.153,-0.04,-0.035,0.08
2,0.643,-1.071,0.547,1.134,-0.79,-0.018,-0.244,0.83,0.122,-0.05,-0.031,0.08
2,0.651,-1.076,0.547,1.13,-0.777,-0.016,-0.315,0.917,-0.004,-0.054,-0.029,0.08
2,0.659,-1.081,0.546,1.129,-0.768,-0.015,-0.34,1.005,-0.001,-0.058,-0.026,0.079
2,0.668,-1.086,0.547,1.128,-0.758,-0.014,-0.356,0.96,0.095,-0.062,-0.024,0.079
2,0.676,-1.09,0.547,1.126,-0.747,-0.013,-0.382,0.989,0.044,-0.066,-0.022,0.079
2,0.692,-1.1,0.546,1.124,-0.735,-0.012,-0.443,1.101,-0.052,-0.07,-0.02,0.078
2,0.7,-1.104,0.546,1.119,-0.719,-0.011,-0.47,1.179,-0.063,-0.074,-0.018,0.078
2,0.708,-1.109,0.547,1.117,-0.708,-0.011,-0.412,1.085,0.016,-0.078,-0.015,0.078
2,0.716,-1.113,0.546,1.117,-0.708,-0.011,-0.412,1.085,0.016,-0.078,-0.015,0.078
2,0.724,-1.117,0.546,1.115,-0.696,-0.01,-0.412,1.085,0.016,-0.078,-0.015,0.078
2,0.74,-1.125,0.546,1.112,-0.675,-0.01,-0.552,1.241,-0.049,-0.083,-0.009,0.078
2,0.748,-1.129,0.546,1.1,-0.653,-0.008,-0.507,1.19,0.012,-0.088,-0.002,0.079
2,0.756,-1.133,0.546,1.096,-0.641,-0.007,-0.579,1.187,-0.05,-0.09,0.002,0.078
2,0.763,-1.137,0.546,1.092,-0.628,-0.007,-0.685,1.253,-0.16,-0.092,0.006,0.078
2,0.771,-1.14,0.546,1.086,-0.615,-0.008,-0.709,1.214,-0.111,-0.093,0.009,0.078
2,0.787,-1.147,0.545,1.081,-0.601,-0.008,-0.702,1.155,-0.067,-0.093,0.009,0.078
2,0.794,-1.151,0.545,1.081,-0.601,-0.008,-0.702,1.155,-0.067,-0.094,0.013,0.078
2,0.802,-1.154,0.545,1.074,-0.587,-0.008,-0.788,1.209,-0.156,-0.095,0.017,0.078
2,0.809,-1.157,0.545,1.057,-0.556,-0.009,-0.819,1.184,-0.07,-0.096,0.025,0.077
2,0.817,-1.16,0.545,1.05,-0.542,-0.009,-0.842,1.194,-0.157,-0.096,0.028,0.077
2,0.831,-1.167,0.544,1.042,-0.528,-0.01,-0.867,1.18,-0.244,-0.096,0.031,0.076
2,0.839,-1.17,0.544,1.032,-0.51,-0.011,-0.888,1.168,-0.134,-0.096,0.034,0.077
2,0.846,-1.172,0.544,1.024,-0.496,-0.012,-0.872,1.077,-0.051,-0.096,0.038,0.077
2,0.853,-1.175,0.544,1.016,-0.483,-0.012,-1.0,1.175,-0.206,-0.095,0.043,0.076
2,0.86,-1.177,0.544,1.007,-0.469,-0.013,-0.987,1.128,-0.107,-0.095,0.047,0.076
2,0.874,-1.182,0.543,0.998,-0.455,-0.014,-0.955,1.066,-0.023,-0.094,0.051,0.075
2,0.882,-1.185,0.543,0.984,-0.436,-0.013,-1.057,1.12,-0.152,-0.094,0.055,0.074
2,0.889,-1.187,0.543,0.975,-0.422,-0.013,-1.139,1.14,-0.2,-0.093,0.059,0.074
2,0.895,-1.189,0.542,0.964,-0.409,-0.014,-1.135,1.03,-0.102,-0.092,0.064,0.073
2,0.902,-1.191,0.542,0.953,-0.396,-0.015,-1.189,1.023,-0.205,-0.09,0.067,0.072
2,0.915,-1.195,0.541,0.941,-0.382,-0.015,-1.251,1.067,-0.166,-0.089,0.071,0.071
2,0.921,-1.197,0.541,0.926,-0.365,-0.016,-1.205,1.022,-0.094,-0.088,0.075,0.069
2,0.927,-1.198,0.54,0.914,-0.353,-0.017,-1.281,0.977,-0.127,-0.085,0.077,0.067
2,0.934,-1.2,0.54,0.903,-0.341,-0.018,-1.3,1.019,-0.186,-0.083,0.079,0.065
2,0.94,-1.202,0.539,0.89,-0.329,-0.019,-1.315,1.013,-0.204,-0.081,0.083,0.063
2,0.952,-1.205,0.538,0.877,-0.318,-0.021,-1.267,0.918,-0.072,-0.078,0.085,0.061
2,0.958,-1.206,0.538,0.86,-0.302,-0.021,-1.33,0.884,-0.178,-0.075,0.088,0.059
2,0.964,-1.207,0.538,0.847,-0.291,-0.023,-1.38,0.835,-0.149,-0.072,0.09,0.057
2,0.97,-1.209,0.537,0.834,-0.281,-0.024,-1.339,0.789,-0.064,-0.069,0.092,0.054
2,0.975,-1.21,0.536,0.82,-0.269,-0.024,-1.308,0.705,-0.04,-0.066,0.095,0.052
2,0.987,-1.212,0.536,0.807,-0.259,-0.025,-1.385,0.686,-0.154,-0.062,0.096,0.05
2,0.992,-1.213,0.535,0.797,-0.254,-0.026,-1.432,0.747,-0.214,-0.059,0.099,0.048
2,0.997,-1.214,0.534,0.775,-0.236,-0.028,-1.396,0.682,-0.078,-0.055,0.1,0.045
2,1.002,-1.215,0.534,0.761,-0.228,-0.029,-1.406,0.582,-0.019,-0.051,0.102,0.042
2,1.007,-1.216,0.533,0.747,-0.219,-0.029,-1.419,0.507,-0.043,-0.046,0.103,0.039
2,1.017,-1.217,0.532,0.731,-0.211,-0.03,-1.439,0.502,-0.126,-0.042,0.104,0.036
2,1.022,-1.218,0.532,0.712,-0.199,-0.032,-1.419,0.479,-0.111,-0.038,0.105,0.033
2,1.027,-1.219,0.531,0.698,-0.192,-0.033,-1.413,0.422,-0.065,-0.034,0.106,0.03
2,1.031,-1.22,0.53,0.683,-0.185,-0.034,-1.412,0.378,-0.01,-0.03,0.107,0.027
2,1.036,-1.22,0.53,0.669,-0.179,-0.035,-1.439,0.335,-0.043,-0.026,0.108,0.024
2,1.045,-1.222,0.529,0.653,-0.173,-0.035,-1.463,0.345,-0.086,-0.022,0.108,0.021
2,1.049,-1.222,0.528,0.634,-0.164,-0.037,-1.452,0.313,-0.075,-0.018,0.109,0.018
2,1.054,-1.223,0.528,0.62,-0.159,-0.038,-1.427,0.264,-0.025,-0.014,0.109,0.015
2,1.057,-1.223,0.527,0.605,-0.154,-0.038,-1.437,0.263,0.018,-0.011,0.109,0.012
2,1.061,-1.224,0.526,0.591,-0.149,-0.039,-1.427,0.159,0.068,-0.007,0.108,0.009
2,1.069,-1.225,0.525,0.576,-0.145,-0.039,-1.389,0.138,0.046,-0.004,0.107,0.006
2,1.073,-1.225,0.525,0.558,-0.138,-0.04,-1.393,0.079,0.028,-0.0,0.106,0.003
2,1.076,-1.226,0.524,0.544,-0.135,-0.04,-1.352,0.094,-0.024,0.003,0.104,0.0
2,1.08,-1.226,0.524,0.53,-0.133,-0.041,-1.326,0.076,-0.0,0.007,0.103,-0.003
2,1.083,-1.227,0.523,0.516,-0.13,-0.041,-1.301,0.064,0.061,0.01,0.101,-0.006
2,1.09,-1.227,0.522,0.502,-0.128,-0.041,-1.301,0.031,0.05,0.013,0.099,-0.009
2,1.093,-1.228,0.521,0.485,-0.124,-0.042,-1.28,-0.045,0.098,0.016,0.098,-0.012
2,1.096,-1.229,0.521,0.472,-0.122,-0.042,-1.236,-0.083,0.125,0.019,0.096,-0.015
2,1.099,-1.229,0.52,0.46,-0.122,-0.042,-1.223,-0.131,0.156,0.022,0.093,-0.018
2,1.103,-1.229,0.52,0.447,-0.121,-0.041,-1.181,-0.135,0.136,0.025,0.091,-0.021
2,1.108,-1.23,0.518,0.434,-0.12,-0.04,-1.118,-0.12,0.104,0.027,0.088,-0.024
2,1.111,-1.23,0.518,0.419,-0.118,-0.04,-1.107,-0.197,0.113,0.03,0.086,-0.027
2,1.113,-1.231,0.517,0.408,-0.118,-0.04,-1.094,-0.204,0.14,0.032,0.084,-0.03
2,1.116,-1.231,0.517,0.396,-0.119,-0.039,-1.066,-0.221,0.145,0.035,0.082,-0.033
2,1.119,-1.232,0.516,0.386,-0.12,-0.039,-1.028,-0.256,0.126,0.038,0.079,-0.035
2,1.124,-1.233,0.515,0.375,-0.121,-0.038,-1.002,-0.285,0.102,0.04,0.076,-0.038
2,1.126,-1.233,0.515,0.36,-0.121,-0.039,-0.988,-0.282,0.086,0.042,0.074,-0.041
2,1.128,-1.234,0.514,0.35,-0.123,-0.039,-0.941,-0.297,0.097,0.044,0.071,-0.044
2,1.13,-1.234,0.514,0.341,-0.125,-0.039,-0.908,-0.312,0.126,0.046,0.068,-0.047
2,1.133,-1.235,0.513,0.331,-0.127,-0.038,-0.89,-0.339,0.145,0.047,0.065,-0.049
2,1.137,-1.236,0.513,0.321,-0.129,-0.037,-0.888,-0.314,0.156,0.048,0.063,-0.052
2,1.139,-1.237,0.512,0.315,-0.133,-0.036,-0.836,-0.307,0.161,0.049,0.059,-0.054
2,1.141,-1.237,0.512,0.302,-0.131,-0.036,-0.771,-0.373,0.165,0.05,0.056,-0.057
2,1.143,-1.238,0.511,0.294,-0.134,-0.036,-0.717,-0.354,0.188,0.051,0.053,-0.059
2,1.145,-1.239,0.511,0.286,-0.137,-0.034,-0.7,-0.34,0.207,0.052,0.05,-0.062
2,1.149,-1.24,0.51,0.278,-0.14,-0.033,-0.707,-0.359,0.182,0.053,0.047,-0.064
2,1.15,-1.241,0.51,0.269,-0.142,-0.033,-0.667,-0.365,0.167,0.053,0.045,-0.066
2,1.153,-1.241,0.509,0.262,-0.145,-0.032,-0.666,-0.39,0.178,0.054,0.042,-0.069
2,1.155,-1.242,0.51,0.255,-0.149,-0.031,-0.641,-0.347,0.199,0.055,0.04,-0.071
2,1.156,-1.243,0.509,0.248,-0.151,-0.029,-0.603,-0.37,0.219,0.054,0.039,-0.072
2,1.159,-1.245,0.508,0.242,-0.155,-0.028,-0.561,-0.379,0.174,0.054,0.036,-0.075
2,1.161,-1.246,0.508,0.238,-0.16,-0.026,-0.555,-0.315,0.17,0.054,0.034,-0.077
2,1.162,-1.247,0.508,0.229,-0.161,-0.026,-0.498,-0.317,0.195,0.053,0.031,-0.079
2,1.164,-1.247,0.508,0.224,-0.164,-0.025,-0.5,-0.327,0.221,0.052,0.029,-0.082
2,1.166,-1.248,0.507,0.219,-0.168,-0.023,-0.468,-0.333,0.209,0.051,0.026,-0.084
2,1.168,-1.25,0.507,0.214,-0.171,-0.021,-0.46,-0.334,0.235,0.05,0.024,-0.086
2,1.17,-1.251,0.507,0.212,-0.176,-0.019,-0.41,-0.299,0.235,0.048,0.021,-0.088
2,1.171,-1.252,0.507,0.205,-0.176,-0.018,-0.425,-0.265,0.266,0.046,0.019,-0.09
2,1.173,-1.253,0.507,0.201,-0.179,-0.016,-0.382,-0.264,0.281,0.044,0.017,-0.092
2,1.174,-1.254,0.507,0.198,-0.182,-0.014,-0.352,-0.254,0.285,0.043,0.015,-0.094
2,1.177,-1.256,0.506,0.195,-0.184,-0.011,-0.337,-0.234,0.264,0.04,0.013,-0.096
2,1.179,-1.257,0.506,0.191,-0.185,-0.009,-0.303,-0.217,0.248,0.039,0.012,-0.097
2,1.18,-1.259,0.506,0.188,-0.188,-0.008,-0.298,-0.222,0.233,0.038,0.01,-0.099
2,1.181,-1.26,0.506,0.186,-0.19,-0.006,-0.315,-0.196,0.242,0.036,0.008,-0.102
2,1.183,-1.261,0.506,0.184,-0.192,-0.003,-0.25,-0.155,0.211,0.034,0.006,-0.103
2,1.186,-1.263,0.506,0.183,-0.194,-0.002,-0.21,-0.141,0.233,0.032,0.005,-0.105
2,1.187,-1.264,0.506,0.182,-0.197,0.001,-0.227,-0.143,0.215,0.03,0.005,-0.107
2,1.188,-1.266,0.506,0.177,-0.196,0.002,-0.235,-0.121,0.196,0.029,0.004,-0.109
2,1.19,-1.267,0.507,0.175,-0.197,0.004,-0.252,-0.113,0.152,0.026,0.004,-0.111
2,1.191,-1.268,0.507,0.174,-0.198,0.005,-0.205,-0.065,0.155,0.024,0.003,-0.113
2,1.194,-1.27,0.507,0.173,-0.198,0.007,-0.219,-0.043,0.169,0.022,0.003,-0.114
2,1.195,-1.271,0.507,0.171,-0.197,0.008,-0.229,-0.065,0.174,0.02,0.003,-0.115
2,1.197,-1.272,0.507,0.17,-0.198,0.009,-0.208,-0.06,0.158,0.019,0.002,-0.117
2,1.198,-1.273,0.507,0.168,-0.199,0.011,-0.213,-0.014,0.143,0.017,0.002,-0.118
2,1.199,-1.274,0.507,0.167,-0.199,0.012,-0.195,0.031,0.139,0.015,0.002,-0.119
2,1.202,-1.277,0.508,0.166,-0.199,0.014,-0.183,0.008,0.151,0.013,0.002,-0.12
2,1.203,-1.278,0.508,0.165,-0.197,0.015,-0.204,0.044,0.172,0.011,0.002,-0.122
2,1.205,-1.279,0.508,0.164,-0.197,0.016,-0.191,0.057,0.151,0.01,0.002,-0.123
2,1.206,-1.28,0.508,0.164,-0.197,0.018,-0.194,0.041,0.133,0.008,0.002,-0.124
2,1.207,-1.281,0.508,0.163,-0.196,0.019,-0.175,0.081,0.105,0.006,0.002,-0.126
2,1.21,-1.283,0.509,0.162,-0.195,0.02,-0.154,0.103,0.085,0.005,0.002,-0.127
2,1.211,-1.284,0.509,0.161,-0.192,0.021,-0.153,0.138,0.078,0.003,0.002,-0.128
2,1.213,-1.285,0.509,0.16,-0.19,0.022,-0.185,0.151,0.077,0.001,0.003,-0.128
2,1.214,-1.286,0.509,0.16,-0.189,0.023,-0.17,0.199,0.091,-0.001,0.003,-0.129
2,1.215,-1.287,0.51,0.159,-0.187,0.023,-0.166,0.195,0.076,-0.003,0.003,-0.13
2,1.218,-1.289,0.51,0.159,-0.185,0.024,-0.179,0.188,0.062,-0.004,0.004,-0.131
2,1.219,-1.29,0.51,0.158,-0.181,0.025,-0.217,0.215,0.039,-0.006,0.004,-0.131
2,1.221,-1.291,0.511,0.158,-0.179,0.025,-0.212,0.199,0.044,-0.007,0.004,-0.132
2,1.222,-1.293,0.51,0.157,-0.177,0.026,-0.207,0.239,0.031,-0.008,0.005,-0.133
2,1.223,-1.293,0.511,0.157,-0.174,0.026,-0.194,0.247,0.023,-0.01,0.006,-0.134
2,1.226,-1.295,0.511,0.156,-0.171,0.026,-0.192,0.197,-0.016,-0.01,0.007,-0.134
2,1.227,-1.295,0.512,0.155,-0.167,0.026,-0.177,0.25,-0.001,-0.012,0.007,-0.135
3,-1.969,1.034,0.572,-0.03,-0.106,0.001,0.186,0.709,-0.009,-0.06,-0.019,0.031
3,-1.969,1.033,0.571,-0.026,-0.098,0.001,0.109,0.693,-0.026,-0.058,-0.017,0.03
3,-1.969,1.033,0.572,-0.023,-0.089,0.0,0.078,0.639,-0.035,-0.056,-0.015,0.029
3,-1.968,1.033,0.571,-0.02,-0.082,-0.0,0.078,0.639,-0.035,-0.054,-0.013,0.029
3,-1.968,1.033,0.571,-0.018,-0.075,-0.001,0.094,0.618,-0.076,-0.051,-0.011,0.028
3,-1.968,1.032,0.571,-0.017,-0.068,-0.002,0.045,0.583,-0.061,-0.049,-0.008,0.027
3,-1.968,1.032,0.571,-0.015,-0.062,-0.003,0.045,0.583,-0.061,-0.047,-0.006,0.027
3,-1.967,1.032,0.571,-0.012,-0.054,-0.004,0.017,0.53,-0.057,-0.044,-0.004,0.026
3,-1.967,1.032,0.57,-0.011,-0.048,-0.005,-0.009,0.501,-0.046,-0.042,-0.002,0.026
3,-1.967,1.033,0.57,-0.01,-0.043,-0.006,-0.016,0.493,-0.027,-0.039,-0.0,0.025
3,-1.966,1.033,0.57,-0.009,-0.037,-0.006,-0.016,0.493,-0.027,-0.039,0.0,0.026
3,-1.966,1.033,0.57,-0.007,-0.032,-0.007,-0.075,0.42,-0.011,-0.033,0.004,0.024
3,-1.966,1.033,0.57,-0.006,-0.025,-0.008,-0.089,0.416,0.026,-0.031,0.005,0.024
3,-1.965,1.033,0.569,-0.005,-0.021,-0.008,-0.089,0.416,0.026,-0.028,0.007,0.023
3,-1.965,1.034,0.569,-0.005,-0.016,-0.008,-0.105,0.356,0.03,-0.025,0.008,0.023
3,-1.965,1.034,0.569,-0.005,-0.012,-0.008,-0.137,0.271,0.034,-0.023,0.009,0.022
3,-1.964,1.034,0.569,-0.005,-0.008,-0.009,-0.161,0.295,0.012,-0.02,0.01,0.022
3,-1.964,1.035,0.568,-0.004,-0.003,-0.009,-0.152,0.273,0.001,-0.018,0.012,0.021
3,-1.964,1.035,0.568,-0.004,0.0,-0.01,-0.163,0.198,0.014,-0.015,0.013,0.02
3,-1.964,1.035,0.568,-0.004,0.003,-0.01,-0.174,0.176,0.024,-0.012,0.014,0.02
3,-1.964,1.036,0.568,-0.004,0.005,-0.01,-0.176,0.164,0.035,-0.009,0.015,0.019
3,-1.963,1.037,0.567,-0.005,0.008,-0.011,-0.197,0.125,-0.013,-0.009,0.015,0.019
3,-1.963,1.037,0.567,-0.005,0.011,-0.011,-0.201,0.084,-0.005,-0.004,0.018,0.018
3,-1.963,1.037,0.567,-0.005,0.013,-0.012,-0.219,0.069,-0.012,-0.003,0.018,0.018
3,-1.963,1.038,0.567,-0.006,0.014,-0.012,-0.227,0.033,0.041,0.002,0.02,0.017
3,-1.962,1.038,0.567,-0.007,0.015,-0.013,-0.227,0.033,0.041,0.005,0.021,0.016
3,-1.962,1.038,0.567,-0.009,0.016,-0.013,-0.262,-0.019,0.027,0.007,0.022,0.015
3,-1.962,1.039,0.566,-0.01,0.016,-0.013,-0.224,-0.06,0.038,0.007,0.022,0.015
3,-1.962,1.04,0.566,-0.009,0.017,-0.013,-0.219,-0.07,0.025,0.013,0.022,0.014
3,-1.962,1.04,0.566,-0.01,0.017,-0.013,-0.219,-0.07,0.025,0.014,0.022,0.013
3,-1.962,1.04,0.566,-0.012,0.016,-0.013,-0.265,-0.108,0.011,0.02,0.021,0.011
3,-1.962,1.041,0.566,-0.013,0.015,-0.014,-0.265,-0.108,0.011,0.02,0.021,0.011
3,-1.961,1.042,0.565,-0.013,0.015,-0.014,-0.211,-0.197,0.029,0.025,0.021,0.01
3,-1.961,1.042,0.565,-0.014,0.013,-0.014,-0.209,-0.219,0.069,0.028,0.02,0.01
3,-1.961,1.042,0.565,-0.015,0.011,-0.014,-0.189,-0.203,0.081,0.03,0.02,0.009
3,-1.961,1.042,0.565,-0.016,0.008,-0.013,-0.197,-0.277,0.061,0.033,0.019,0.008
3,-1.961,1.043,0.565,-0.017,0.006,-0.013,-0.197,-0.277,0.061,0.036,0.017,0.008
3,-1.961,1.043,0.564,-0.017,0.005,-0.013,-0.143,-0.358,0.072,0.039,0.016,0.008
3,-1.961,1.043,0.564,-0.018,0.002,-0.013,-0.138,-0.337,0.069,0.042,0.014,0.007
3,-1.961,1.043,0.564,-0.018,-0.001,-0.012,-0.137,-0.402,0.092,0.042,0.014,0.007
3,-1.961,1.044,0.564,-0.019,-0.005,-0.012,-0.126,-0.413,0.085,0.047,0.011,0.006
3,-1.962,1.044,0.564,-0.019,-0.008,-0.011,-0.126,-0.413,0.085,0.047,0.011,0.006
3,-1.961,1.044,0.564,-0.019,-0.011,-0.011,-0.084,-0.427,0.106,0.052,0.007,0.005
3,-1.962,1.044,0.563,-0.019,-0.016,-0.01,-0.071,-0.485,0.073,0.054,0.006,0.005
3,-1.962,1.044,0.563,-0.019,-0.02,-0.01,-0.082,-0.486,0.086,0.056,0.004,0.004
3,-1.962,1.044,0.563,-0.02,-0.024,-0.01,-0.053,-0.476,0.113,0.058,0.003,0.004
3,-1.962,1.043,0.563,-0.019,-0.029,-0.009,-0.015,-0.533,0.101,0.06,0.001,0.004
3,-1.962,1.043,0.563,-0.019,-0.034,-0.008,-0.001,-0.551,0.078,0.063,-0.002,0.003
3,-1.962,1.043,0.563,-0.018,-0.039,-0.008,-0.001,-0.551,0.078,0.066,-0.005,0.003
3,-1.962,1.043,0.563,-0.017,-0.046,-0.007,0.064,-0.622,0.094,0.07,-0.009,0.002
3,-1.962,1.043,0.563,-0.016,-0.052,-0.007,0.091,-0.599,0.062,0.07,-0.008,0.002
3,-1.962,1.042,0.563,-0.014,-0.059,-0.007,0.091,-0.599,0.062,0.074,-0.012,0.002
3,-1.962,1.042,0.563,-0.012,-0.066,-0.006,0.185,-0.685,0.042,0.081,-0.019,0.001
3,-1.962,1.041,0.562,-0.01,-0.073,-0.006,0.185,-0.685,0.042,0.084,-0.022,0.001
3,-1.962,1.041,0.562,-0.007,-0.081,-0.006,0.251,-0.755,0.065,0.087,-0.026,0.002
3,-1.961,1.04,0.562,-0.005,-0.089,-0.005,0.277,-0.78,0.062,0.089,-0.03,0.001
3,-1.961,1.039,0.562,-0.001,-0.097,-0.005,0.33,-0.789,0.062,0.092,-0.033,0.002
3,-1.961,1.038,0.562,0.003,-0.105,-0.005,0.359,-0.784,0.055,0.095,-0.038,0.002
3,-1.961,1.037,0.562,0.007,-0.114,-0.005,0.362,-0.879,0.032,0.098,-0.042,0.002
3,-1.961,1.036,0.562,0.011,-0.123,-0.005,0.448,-0.862,0.017,0.102,-0.046,0.002
3,-1.96,1.035,0.562,0.016,-0.132,-0.005,0.48,-0.918,0.014,0.104,-0.051,0.002
3,-1.96,1.033,0.562,0.022,-0.141,-0.005,0.52,-0.922,-0.014,0.107,-0.055,0.003
3,-1.959,1.032,0.562,0.028,-0.15,-0.005,0.565,-0.963,0.021,0.109,-0.059,0.003
3,-1.959,1.031,0.562,0.034,-0.161,-0.006,0.58,-0.962,0.024,0.111,-0.063,0.003
3,-1.958,1.03,0.562,0.041,-0.171,-0.006,0.586,-0.982,0.04,0.113,-0.066,0.003
3,-1.958,1.029,0.562,0.047,-0.182,-0.006,0.586,-0.982,0.04,0.114,-0.07,0.003
3,-1.957,1.026,0.562,0.055,-0.192,-0.006,0.622,-0.969,0.072,0.116,-0.074,0.004
3,-1.956,1.024,0.562,0.063,-0.203,-0.006,0.69,-0.959,0.04,0.116,-0.074,0.004
3,-1.955,1.023,0.562,0.071,-0.214,-0.006,0.75,-1.045,-0.022,0.118,-0.078,0.004
3,-1.954,1.021,0.562,0.08,-0.225,-0.006,0.81,-1.02,0.029,0.119,-0.083,0.004
3,-1.953,1.019,0.562,0.089,-0.236,-0.006,0.832,-1.059,0.005,0.121,-0.087,0.004
3,-1.952,1.015,0.561,0.098,-0.248,-0.007,0.832,-1.059,0.005,0.122,-0.091,0.005
3,-1.95,1.014,0.562,0.108,-0.258,-0.007,0.894,-1.058,-0.008,0.123,-0.095,0.005
3,-1.949,1.011,0.561,0.118,-0.27,-0.007,0.897,-1.086,-0.035,0.124,-0.099,0.005
3,-1.948,1.009,0.561,0.129,-0.282,-0.008,0.938,-1.066,0.01,0.125,-0.102,0.005
3,-1.947,1.007,0.562,0.14,-0.294,-0.008,0.975,-1.068,0.029,0.125,-0.104,0.005
3,-1.944,1.002,0.561,0.151,-0.306,-0.008,0.987,-1.046,-0.001,0.126,-0.11,0.005
3,-1.942,1.0,0.562,0.162,-0.316,-0.009,1.027,-1.059,-0.007,0.126,-0.11,0.005
3,-1.941,0.998,0.561,0.173,-0.328,-0.009,1.03,-1.109,-0.014,0.127,-0.113,0.005
3,-1.939,0.995,0.561,0.185,-0.34,-0.009,1.061,-1.086,0.028,0.129,-0.117,0.005
3,-1.937,0.992,0.561,0.197,-0.353,-0.01,1.1,-1.089,0.006,0.132,-0.124,0.005
3,-1.933,0.987,0.561,0.21,-0.365,-0.01,1.141,-1.138,-0.044,0.132,-0.124,0.005
3,-1.931,0.984,0.561,0.223,-0.377,-0.011,1.142,-1.155,-0.073,0.135,-0.13,0.006
3,-1.929,0.981,0.561,0.236,-0.39,-0.012,1.171,-1.1,-0.041,0.135,-0.13,0.006
3,-1.927,0.978,0.561,0.249,-0.402,-0.013,1.182,-1.077,-0.021,0.136,-0.132,0.006
3,-1.925,0.975,0.561,0.263,-0.414,-0.013,1.182,-1.077,-0.021,0.136,-0.134,0.006
3,-1.92,0.969,0.561,0.276,-0.427,-0.014,1.189,-1.088,-0.035,0.135,-0.136,0.007
3,-1.917,0.965,0.561,0.29,-0.438,-0.014,1.238,-1.075,-0.007,0.135,-0.138,0.007
3,-1.915,0.962,0.561,0.304,-0.451,-0.015,1.279,-1.083,-0.002,0.135,-0.14,0.007
3,-1.912,0.958,0.561,0.318,-0.464,-0.016,1.276,-1.106,0.011,0.134,-0.143,0.008
3,-1.909,0.955,0.561,0.333,-0.476,-0.016,1.287,-1.08,0.022,0.133,-0.146,0.008
3,-1.903,0.947,0.561,0.348,-0.488,-0.016,1.319,-1.051,0.006,0.133,-0.149,0.009
3,-1.9,0.944,0.56,0.363,-0.499,-0.016,1.366,-1.017,0.02,0.131,-0.151,0.009
3,-1.897,0.94,0.56,0.379,-0.511,-0.017,1.363,-1.014,0.06,0.13,-0.153,0.01
3,-1.893,0.936,0.56,0.395,-0.522,-0.016,1.322,-0.984,0.032,0.128,-0.155,0.01
3,-1.89,0.932,0.56,0.41,-0.533,-0.017,1.332,-0.942,0.034,0.125,-0.155,0.01
3,-1.883,0.924,0.56,0.426,-0.545,-0.017,1.348,-0.912,0.102,0.123,-0.156,0.011
3,-1.879,0.92,0.56,0.442,-0.555,-0.016,1.384,-0.902,0.081,0.121,-0.157,0.011
3,-1.875,0.915,0.56,0.458,-0.565,-0.016,1.373,-0.893,0.075,0.118,-0.158,0.012
3,-1.871,0.911,0.56,0.474,-0.576,-0.016,1.386,-0.873,0.057,0.116,-0.16,0.012
3,-1.867,0.907,0.56,0.491,-0.586,-0.016,1.415,-0.776,0.043,0.113,-0.16,0.013
3,-1.859,0.898,0.56,0.506,-0.595,-0.015,1.419,-0.755,0.071,0.111,-0.162,0.013
3,-1.854,0.893,0.56,0.523,-0.602,-0.015,1.394,-0.709,0.042,0.107,-0.162,0.014
3,-1.85,0.889,0.56,0.539,-0.611,-0.015,1.398,-0.677,0.036,0.104,-0.162,0.015
3,-1.845,0.884,0.56,0.556,-0.62,-0.015,1.331,-0.631,0.112,0.1,-0.161,0.016
3,-1.84,0.88,0.56,0.572,-0.628,-0.014,1.314,-0.609,0.124,0.096,-0.16,0.016
3,-1.831,0.87,0.56,0.588,-0.636,-0.014,1.287,-0.558,0.158,0.092,-0.157,0.017
3,-1.826,0.865,0.56,0.604,-0.641,-0.012,1.256,-0.53,0.189,0.084,-0.153,0.017
3,-1.821,0.861,0.56,0.62,-0.648,-0.011,1.251,-0.471,0.203,0.084,-0.153,0.017
3,-1.815,0.856,0.56,0.635,-0.654,-0.009,1.215,-0.442,0.216,0.08,-0.15,0.018
3,-1.81,0.851,0.56,0.65,-0.66,-0.007,1.194,-0.435,0.214,0.077,-0.149,0.018
3,-1.799,0.841,0.56,0.664,-0.665,-0.005,1.184,-0.354,0.194,0.074,-0.147,0.019
3,-1.794,0.837,0.561,0.679,-0.668,-0.003,1.176,-0.332,0.184,0.071,-0.146,0.019
3,-1.788,0.832,0.56,0.695,-0.673,-0.002,1.132,-0.286,0.158,0.067,-0.145,0.019
3,-1.782,0.827,0.561,0.709,-0.677,-0.0,1.115,-0.276,0.188,0.065,-0.144,0.02
3,-1.776,0.822,0.561,0.723,-0.681,0.001,1.115,-0.276,0.188,0.061,-0.143,0.02
3,-1.765,0.812,0.561,0.737,-0.685,0.002,1.1,-0.219,0.176,0.059,-0.141,0.021
3,-1.759,0.807,0.561,0.751,-0.687,0.004,1.091,-0.239,0.141,0.057,-0.14,0.021
3,-1.752,0.802,0.562,0.764,-0.691,0.006,1.061,-0.18,0.215,0.055,-0.138,0.021
3,-1.746,0.797,0.562,0.778,-0.694,0.007,1.012,-0.162,0.212,0.054,-0.136,0.022
3,-1.74,0.792,0.562,0.791,-0.697,0.009,0.936,-0.162,0.178,0.053,-0.134,0.022
3,-1.733,0.787,0.562,0.804,-0.701,0.01,0.917,-0.188,0.146,0.053,-0.132,0.022
3,-1.72,0.777,0.562,0.816,-0.703,0.011,0.884,-0.156,0.139,0.052,-0.13,0.022
3,-1.714,0.772,0.563,0.828,-0.704,0.012,0.831,-0.109,0.194,0.051,-0.126,0.023
3,-1.707,0.767,0.563,0.84,-0.707,0.013,0.772,-0.107,0.178,0.05,-0.123,0.022
3,-1.7,0.762,0.563,0.852,-0.71,0.014,0.719,-0.117,0.225,0.048,-0.12,0.022
3,-1.694,0.757,0.563,0.863,-0.711,0.017,0.7,-0.098,0.208,0.047,-0.116,0.022
3,-1.68,0.747,0.564,0.873,-0.713,0.019,0.688,-0.072,0.221,0.045,-0.112,0.023
3,-1.673,0.742,0.564,0.882,-0.712,0.021,0.645,-0.068,0.206,0.044,-0.105,0.024
3,-1.666,0.737,0.565,0.892,-0.714,0.023,0.592,-0.066,0.157,0.044,-0.105,0.024
3,-1.659,0.731,0.565,0.901,-0.715,0.025,0.556,-0.109,0.164,0.044,-0.102,0.025
3,-1.645,0.721,0.566,0.911,-0.717,0.026,0.523,-0.089,0.128,0.045,-0.099,0.025
3,-1.638,0.716,0.566,0.919,-0.717,0.028,0.478,-0.116,0.129,0.046,-0.094,0.027
3,-1.63,0.711,0.566,0.927,-0.719,0.029,0.432,-0.085,0.151,0.046,-0.093,0.027
3,-1.623,0.706,0.566,0.936,-0.72,0.031,0.381,-0.111,0.164,0.046,-0.09,0.027
3,-1.616,0.701,0.567,0.943,-0.723,0.032,0.365,-0.105,0.166,0.046,-0.083,0.029
3,-1.601,0.691,0.568,0.95,-0.724,0.033,0.344,-0.101,0.193,0.046,-0.083,0.029
3,-1.594,0.686,0.568,0.956,-0.723,0.036,0.301,-0.104,0.144,0.047,-0.079,0.03
3,-1.586,0.681,0.568,0.962,-0.725,0.038,0.262,-0.153,0.138,0.048,-0.076,0.031
3,-1.579,0.676,0.569,0.969,-0.727,0.039,0.252,-0.174,0.116,0.05,-0.073,0.031
3,-1.572,0.671,0.569,0.974,-0.729,0.041,0.227,-0.179,0.079,0.051,-0.07,0.032
3,-1.564,0.666,0.57,0.979,-0.731,0.041,0.204,-0.228,0.043,0.054,-0.068,0.033
3,-1.549,0.656,0.57,0.984,-0.733,0.042,0.19,-0.227,0.038,0.059,-0.063,0.035
3,-1.541,0.651,0.571,0.987,-0.733,0.042,0.144,-0.236,0.024,0.059,-0.063,0.035
3,-1.534,0.645,0.571,0.992,-0.736,0.042,0.055,-0.261,-0.01,0.063,-0.056,0.037
3,-1.526,0.64,0.572,0.996,-0.74,0.041,0.046,-0.292,-0.001,0.063,-0.056,0.037
3,-1.511,0.63,0.573,0.999,-0.742,0.042,-0.02,-0.277,-0.014,0.066,-0.049,0.039
3,-1.503,0.625,0.573,1.0,-0.741,0.044,-0.098,-0.3,0.005,0.066,-0.049,0.039
3,-1.496,0.62,0.574,1.003,-0.746,0.043,-0.098,-0.327,-0.047,0.068,-0.041,0.041
3,-1.488,0.614,0.574,1.005,-0.748,0.044,-0.099,-0.281,-0.06,0.071,-0.037,0.043
3,-1.481,0.609,0.574,1.007,-0.752,0.043,-0.117,-0.292,-0.057,0.071,-0.037,0.043
3,-1.473,0.604,0.575,1.009,-0.755,0.042,-0.152,-0.314,-0.108,0.071,-0.036,0.043
3,-1.458,0.593,0.575,1.01,-0.759,0.04,-0.183,-0.356,-0.076,0.074,-0.033,0.046
3,-1.45,0.588,0.576,1.01,-0.76,0.039,-0.183,-0.388,-0.023,0.075,-0.033,0.046
3,-1.443,0.583,0.576,1.011,-0.764,0.039,-0.198,-0.42,-0.005,0.077,-0.029,0.048
3,-1.435,0.577,0.577,1.012,-0.768,0.039,-0.209,-0.421,0.038,0.079,-0.025,0.051
3,-1.427,0.572,0.577,1.012,-0.772,0.039,-0.211,-0.411,-0.021,0.079,-0.025,0.051
3,-1.412,0.561,0.578,1.012,-0.776,0.038,-0.231,-0.403,-0.092,0.079,-0.024,0.051
3,-1.405,0.556,0.578,1.01,-0.777,0.038,-0.242,-0.394,-0.148,0.083,-0.022,0.054
3,-1.397,0.55,0.579,1.011,-0.782,0.037,-0.231,-0.404,-0.168,0.088,-0.022,0.058
3,-1.389,0.545,0.579,1.011,-0.787,0.035,-0.263,-0.479,-0.143,0.088,-0.022,0.058
3,-1.382,0.54,0.579,1.011,-0.793,0.032,-0.255,-0.496,-0.103,0.088,-0.022,0.058
3,-1.367,0.528,0.58,1.01,-0.797,0.031,-0.231,-0.546,-0.132,0.093,-0.021,0.061
3,-1.359,0.523,0.58,1.007,-0.799,0.03,-0.249,-0.549,-0.097,0.093,-0.021,0.061
3,-1.352,0.517,0.58,1.008,-0.805,0.028,-0.242,-0.531,-0.102,0.094,-0.02,0.062
3,-1.344,0.511,0.581,1.008,-0.811,0.027,-0.279,-0.519,-0.175,0.095,-0.02,0.064
3,-1.337,0.506,0.581,1.008,-0.817,0.025,-0.291,-0.523,-0.185,0.096,-0.019,0.066
3,-1.322,0.494,0.581,1.007,-0.822,0.022,-0.245,-0.496,-0.101,0.096,-0.019,0.067
3,-1.314,0.489,0.582,1.004,-0.824,0.021,-0.234,-0.471,-0.039,0.095,-0.02,0.071
3,-1.307,0.483,0.582,1.004,-0.83,0.02,-0.222,-0.473,-0.041,0.095,-0.02,0.071
3,-1.299,0.477,0.582,1.005,-0.836,0.019,-0.167,-0.429,-0.112,0.094,-0.021,0.073
3,-1.284,0.465,0.583,1.004,-0.841,0.018,-0.158,-0.397,-0.173,0.093,-0.022,0.075
3,-1.277,0.459,0.583,1.002,-0.843,0.016,-0.166,-0.428,-0.177,0.092,-0.023,0.079
